acc_x[mg],acc_y[mg],acc_z[mg]
-497.1585607725371,279.6174024768907,827.7179261011661
-496.9678738407102,287.3886597359955,831.6183406158068
-501.1476905977067,279.61230389582585,823.7328751408485
-501.0936456384188,287.3499105199024,823.7084019517368
-493.41416283848207,283.42196366751136,823.8358664783591
-509.10045734272154,283.4719297619473,815.7515563418701
-493.52327247327077,287.25609662830834,819.8967027476255
-505.13784013908935,298.917571239924,815.758694355361
-497.021918799998,298.96039932086904,827.6547036959614
-501.6932387716499,279.4756619232868,808.0272060285623
-498.05795047238365,287.1153757909174,800.2059826750217
-509.6735378544152,279.46648447737,800.0581238241398
-516.615765832369,271.9940040686677,823.5268924658269
-517.7343945180057,267.85191681155135,792.1277908358104
-517.2163786818129,283.42910168100224,803.8565667174827
-515.9080827805623,295.3434659134363,839.1571025783525
-505.68338831303254,298.7809292673849,800.0530252430749
-505.5742786782439,275.6364303814249,807.9813187989784
-501.1476905977067,260.3029576868758,827.7230246822311
-493.9036266207115,252.40321618493576,816.0839838273009
-494.1493782280392,256.2036985107045,808.2189126766021
-486.06098922669827,271.68808920477437,816.1370090703758
-501.36590986728396,287.2815895336328,815.854547679381
-497.75815390576804,291.0525000892252,808.0465806366088
-497.0494511377484,275.78224979988073,831.6570898319
-494.0137559717131,275.5477150708958,808.1556902713976
-500.3849428703992,291.3900261557209,843.3277418894323
-493.3050532036935,298.8961571994514,823.7859003839233
-497.10451581324924,306.66333559370435,823.702283654459
-498.03143785084615,310.29352531190574,796.2035965390833
-482.53583027843354,302.47128224215203,800.3874921609317
-497.2676704073257,302.76088164663776,819.7886128290497
-493.44169517623254,298.86250656442314,819.8589732477452
-493.03278897482835,298.96549790193393,831.6387349400663
-493.22347590665527,310.5025671355662,823.7481708840431
-485.3533061748916,314.34587754228,827.7770696415189
-477.21087221426285,337.5678748604264,835.6696731299679
-478.00115227932076,321.92134928849305,816.0880626921529
-493.65991444580976,306.5317922022302,811.9806457862778
-481.499798606048,314.3163057721037,827.8351934656586
-490.21531307837034,306.39922909454305,800.2590079180965
-485.980431645873,302.6028256336262,812.1091300291131
-493.0603213125788,314.4060407988457,827.6618417094523
-485.7897447140461,310.37510260894396,816.0105642599666
-493.57833714877154,298.8278362131819,815.9320461115672
-489.61571994513935,294.96413148220853,819.9293336664408
-478.35499380522407,290.9372721571587,812.2620874610597
-490.1337357813321,298.69629282170774,804.2104082433859
-473.73873850907296,321.9947688558275,827.9249284924007
-493.0878536503292,329.84658369575754,823.6839287626254
-497.3502674205769,329.7731641284231,811.8470629623777
-486.14358623994946,298.70037168655966,808.1954592037038
-467.17584496234707,294.61436882115714,800.6434409303891
-477.5096490646653,314.32038463695557,831.8192247097635
-478.11026191410934,325.75650196550305,812.1488989614191
-481.88117246970177,298.7727715376811,820.0323250039514
-481.8536401319513,302.6415748497194,820.0200884093958
-474.6921731682074,283.13644312787756,808.4187770543459
-470.40222706020916,306.3869924999873,816.2542764348683
-477.9736199415703,306.48080639158127,820.0649559227668
-473.6561414958218,314.2908128667792,831.8773485339032
-469.5579020358635,329.77010497978415,835.8114136835719
-470.1850275068449,318.02705307113035,820.1424543549531
-466.1133006684241,310.328195663147,828.0789056405604
-462.9684958676001,306.25952797336504,808.5166698107918
-466.76795847715584,314.0267063676179,808.4330530813276
-470.12996283134413,325.76465969520683,820.1179811658416
-482.29109838731887,337.2894923342834,800.2732839450782
-477.4556041053776,341.36733746998215,827.8046019792694
-489.8879841740045,314.2051567048891,808.086349568915
-474.9654571132854,321.6868145595081,792.5866631316505
-481.499798606048,314.3163057721037,827.8351934656586
-473.5745641987836,325.89722280289396,831.8396190340229
-469.7485889676903,321.99884772067935,831.9099794527185
-454.471200664855,341.1552364976827,824.2243783555037
-465.8685687773093,345.1474254714913,827.9646974247067
-473.3838772669567,333.66848006199876,835.7410532648764
-473.7927834683608,333.566508440701,823.9612915725554
-462.31485777508124,341.18072940300715,820.1822232872594
-473.19319033512977,341.4407570373166,839.6414677795169
-474.6381282089195,329.4927421698542,800.4140047824692
-483.05384611462637,325.5117700743883,780.6784171964944
-466.6863811801176,325.63209658751975,808.3953235814473
-478.3009488459362,337.29357119913533,804.2573151891829
-489.48009768881326,333.6164745351369,815.8769814360664
-482.20952109028065,348.8959022703982,800.235554445198
-481.22753437718285,353.0033191762733,827.7087486552495
-469.5038570765756,356.81705781281073,831.7957712368649
-455.071813514299,352.59033411001724,804.5540526071595
-457.97086670779527,352.8595391902434,831.9823793038399
-477.15580753876196,345.30446176828997,835.6451999408565
-473.6846935497852,349.04070197264105,823.9103057619067
-469.8036536431911,352.87993351450297,823.9551732752776
-474.6381282089195,329.4927421698542,800.4140047824692
-474.201689669765,333.4635171031902,812.1815298802344
-470.32166947938396,317.9934024361021,816.2165469349882
-471.08441720669146,306.215680176207,796.6216801864042
-462.1231511270414,329.6426404531619,828.0738070594955
-469.9392758995172,333.53693667052465,824.0183956804822
-473.43894194245746,345.2412393630853,831.7763966288184
-474.201689669765,333.4635171031902,812.1815298802344
-477.83697796903124,325.8248229517726,820.0017335175622
-486.08954128066165,325.74732451958624,804.1798167569966
-474.28326696680324,321.85710716707547,812.2192593801146
-497.73164128423065,314.2306496102135,804.0441945006705
-485.95289930812265,325.7809751546145,808.1067438931747
-493.27854058215604,322.0743067204397,819.7835142479848
-489.8074265931792,345.12091284995387,804.0584705276522
-486.5259798198162,341.08487607898724,788.4231618340617
-497.62253164944207,329.70484314215355,803.9942284062347
-493.68744678356023,321.97233509914196,808.0037525556638
-500.9855557198432,341.4438161859555,815.6781367745357
-502.45802593138336,325.6269980064548,776.4629103720436
-509.728602529916,329.65793619635656,788.1141878215294
-500.82240112576676,345.346270133022,819.591807599945
-475.075586464287,344.8302937292552,784.6573498595342
-502.34789658038176,302.4824991204948,784.3922236441599
-497.4593770553655,333.6083168054331,807.9078992316439
-488.93454951487007,353.06348243283895,827.5925010069698
-501.12219769238226,360.7184920436643,807.7610600969751
-493.1704506635804,356.85886617754284,815.7423788959534
-497.486909393116,349.0488597023449,803.93100600103
-481.03684744535605,341.466249942641,835.5993127112727
-489.4525653510629,337.48527784717515,815.8637251252977
-489.9981135250061,337.34863587463616,800.1580560130117
-493.57833714877154,337.446528631082,807.952766745015
-489.28941075698634,341.38875151045465,819.777395950707
-490.0246261465435,333.47983256259784,800.1702926075674
-490.1337357813321,318.0056390306578,800.2212784182162
-485.7897447140461,310.37510260894396,816.0105642599666
-492.7605247459632,337.6525113061036,831.5122901296571
-496.7771869088833,333.7786094130004,827.5404954801079
-481.499798606048,333.6256519810537,823.845043924276
-493.27854058215604,341.3836529293898,815.7933647066022
-508.9373027486451,325.9940958431269,811.6859478007271
-497.3502674205769,329.7731641284231,811.8470629623777
-528.3139502276517,310.6677611620686,811.4473342068903
-521.2605731824833,294.99676240102383,795.9078788373197
-525.524006668944,294.9243625499024,784.0699933208589
-540.5281110267014,295.1456409681186,795.6182794328339
-544.6814151621604,291.23808843998717,787.7205773633199
-533.3125991036695,302.6864423630904,780.00234534729
-529.1858075897478,283.4158453702335,791.9034532689553
-544.6538828244101,275.7975455430754,791.6974705939338
-540.5546236482387,271.96749144713027,799.6206655687723
-544.8445697562369,268.0262882839706,787.7960363630802
-555.559747722209,291.49811607429655,807.1798218555776
-551.9795240984434,272.0908771089006,803.374240948744
-549.325202796062,256.31280814549314,772.0699729265347
-552.7687844472885,237.13602504423022,787.7817603360986
-565.2837615291666,236.98510704470948,760.1219580590722
-546.1263530359502,240.67138115462473,756.4723937328242
-548.398280758465,252.6836381435047,799.5686600419104
-560.9132578403431,271.842066352934,767.9197279397144
-571.4367291582753,264.46747870067765,799.1832073134049
-560.6134612737276,256.46984444229173,779.7494557264714
-552.9054264198274,237.10135469298896,783.8548331999206
-564.4934814641086,233.3222864076928,783.694737754483
-549.5158897278887,229.23118496122532,772.1586882370636
-552.8513814605396,244.8389613170655,783.8293402945961
-556.4591374220555,241.0680507614731,791.637307337368
-567.8565055345098,264.36958594423174,791.3884965814015
-575.2627043893685,249.0565075739422,803.102996436092
-556.486669759806,237.19924744943486,791.6505636481369
-557.7133883640183,217.58194694416548,760.3014281125563
-560.4757995849756,198.57647616668285,795.6458117705844
-552.6321424747493,198.5509832613584,799.6879668388289
-560.4757995849756,217.8858223756329,791.6556622292017
-559.7395644792055,225.79372160727672,811.2627655723413
-563.1566335088945,229.79508802700212,822.972166845967
-575.0169527820408,225.9476987554364,814.9582171281733
-556.0492115044384,221.86169589003384,807.4072185710718
-564.3568394915695,214.04659083377098,791.6107947158307
-579.442521146365,202.6624790320854,803.1968103276859
-587.7226167957458,218.02552349681088,783.3980003365065
-595.0472383535663,214.3188550626361,795.0747706913166
-594.4751775580856,237.63364655616346,806.7780536676644
-598.8191686253716,225.95483676892727,794.9789173672967
-606.7719353703865,229.81446263504867,786.9975985683185
-602.263769992811,226.08739987661434,806.7005552354781
-619.0676734664743,202.6859325049839,771.2062732941423
-611.7705842464043,202.52379762712042,759.5427592501009
-599.8276679600068,198.66825062585085,771.5081092931838
-607.9435892990982,198.62542254490577,759.6131196687962
-611.4973003013262,202.5921186133899,767.3955938062438
-610.7610651955562,210.5010375612467,787.0026971493834
-623.8215904513775,190.90413138023692,747.6273753014536
-616.5224617988815,152.1233040844733,743.9431406239644
-619.5581569649167,152.3588585296712,767.4445401844667
-623.2209776019336,160.15968755895236,771.2878505911806
-625.8477665665646,179.80655983439812,802.5788623026212
-618.6312349273198,187.34838094558285,786.9629282170772
-630.218270255388,164.25894673512363,790.7919625968094
-633.5537619880388,141.24701095685072,810.442913737107
-611.2240163562482,144.7324009728093,787.2178572703218
-615.9493812871879,117.5100569511505,767.615852508247
-623.2464705072579,98.36284562006395,783.2695160936713
-619.2848730198386,113.80848709804063,783.2766541071621
-633.9891808109804,117.96688981456462,802.6655381807244
-642.6506503240149,117.78640004486752,775.0638597278379
-634.7254159167504,129.36731707565784,779.0682852962021
-639.8882391030577,117.48354432961308,743.7096256111926
-635.8430248861742,105.91588360959148,751.6583134913554
-639.8872193868447,98.17409614904173,747.6997751525751
-643.6591496586501,109.81017982695417,747.6039218285551
-667.1075239760776,102.18270255387927,739.4288569491112
-675.0052260455916,94.4705888351272,735.4121947861911
-670.2788413984389,83.07403649564327,762.9934789148181
-663.6353902708877,86.60959654928035,731.6841123115438
-657.0735164403748,59.22960440109519,704.4026247495323
-675.685376759648,36.37123788449675,727.748007729449
-675.7129090973983,51.81198472465114,723.771114498835
-694.1361219172705,75.34407774316409,743.0386523430531
-698.5616902815947,52.058959991434385,731.2772455425657
-683.8838951119905,63.34079425695829,707.9114682383894
-683.1751923439707,67.38060397791295,727.5318278922977
-683.2017049655082,44.20245445692464,731.534214028236
-684.1286270031052,47.83172643053439,704.0355269128603
-664.8070441995993,36.11100630694478,708.2887632371912
-672.5956366343247,24.564351740910507,708.2112648050048
-676.0127056640138,9.256015051011305,723.9108156200131
-671.9134464878425,24.735358149826908,727.8438610534689
-699.0786864015745,17.172021026548315,723.5386192022761
-683.6646561262002,17.05302014449379,723.7690750664091
-683.8553430580271,9.281314210255287,719.8686605517685
-676.8029857290717,12.919498503566459,700.3380359246022
-672.3498850269971,1.4546047834887552,720.0675052132992
-680.1384774617225,9.217357609377311,715.9998572397303
-684.1561593408555,24.65357690954608,708.0379130487986
-680.1384774617225,28.52676500130014,712.0097076983476
-673.2227621053062,12.821299832256686,692.543325192599
-672.2407753922084,16.929532511102163,720.0165194026504
-672.4589946617857,5.289125236446697,716.1273217663525
-672.7047462691135,9.089434210459231,708.2622506156538
-671.478027664901,28.706642941269447,739.6113861512342
-682.3828728464869,25.09827515002575,759.0828672380478
-656.5809935095064,-6.299256117022633,732.1032156750776
-660.0531272146962,-10.03560849015719,743.8381098540277
-667.0504198681508,-5.936359511148048,763.3422218596565
-648.792401074781,5.247398449011641,732.1807141072641
-676.3125022306293,5.318880555541393,716.0702176584257
-675.7129090973983,13.193190335129735,731.7503938653874
-667.4878781235183,28.711129692606548,743.5954173953389
-667.4052811102671,21.007887504907387,747.5478374368414
-652.5918636843368,13.014638026237298,732.0981170940129
-664.3695859442319,1.4634967088659228,728.0355677015087
-656.4729035909307,28.485058608189345,728.0631000392591
-667.7601423523835,9.333309539955032,739.7327323805786
-659.8899726206198,13.17677290410079,743.7616311380543
-667.2145941784403,28.779552650497372,751.448251951482
-664.452182957483,9.166738896565088,724.0841673762193
-663.7975251487511,24.77849214563587,739.7398703940694
-659.5075790407531,28.720001223659455,751.5644995997615
-663.8250574865016,40.219137014168965,735.7619574472426
-667.9783616219606,36.311788429280135,727.8642553777285
-659.9990822554084,17.011211779761695,739.8224674073207
-651.6374093089894,13.254067393044519,759.5835478986199
-646.9936216750879,28.870205421831105,779.2232821605747
-643.8212845365135,28.66942329949575,759.6488097362504
-647.3209505794538,40.373725992056414,767.4057909683736
-655.027965717141,40.43327741889433,767.290563036307
-648.1662953200125,36.29975577796699,743.8595238945002
-655.3277622837564,36.49615312058654,759.4499650747198
-656.227151983603,24.684780225663204,735.9281711899579
-647.3209505794538,40.373725992056414,767.4057909683736
-651.4202097556251,44.203780088001515,759.4825959935351
-643.8223042527266,47.9788714800671,755.6586601948678
-647.9205437126849,51.8089255760122,747.7354652200294
-644.6125843177845,32.33295773786156,736.0770497570527
-648.3569822518393,28.528192603998313,739.9580896636467
-640.5408574793636,43.943548510449546,740.0233515012773
-643.985458846803,44.07590767489408,751.7449893694585
-644.0670361438413,32.4697016820219,751.7827188693387
-635.2424120367302,36.552543427164224,783.2980681476347
-639.040854930073,44.3198237930384,783.2154711343834
-639.3416712129015,59.69204570368067,771.3847236314135
-647.0751989721261,55.88279381848033,771.2817322939027
-647.6207471460693,36.436601693748635,759.5651930067863
-642.921894836667,40.48079619441909,783.1695839047994
-639.641467779517,36.44547322480154,767.5342752112088
-623.3270280880831,48.13784523767036,791.2865249601037
-650.9011742032193,40.471924663366195,775.2015214165898
-638.5779037693811,52.15980992489791,794.96973992138
-643.3042884165337,63.55636226438183,767.3884557927529
-632.0435622766184,40.22046264524583,763.7103394125415
-631.7162333722526,48.02639025559188,771.5387007795731
-635.3239893337685,44.25578561486339,779.3466678223451
-632.9704843142155,24.54038840990553,740.2018018385484
-636.5782402757313,20.76988574079834,748.0097688813204
-639.6679804010545,32.57677188438458,767.5465118057646
-647.0476666343757,40.44214894994724,775.2586255245166
-643.6040849831493,59.619237966074046,759.5478578311656
-623.9551732752775,75.01368969015924,767.6393059811455
-631.7988303855038,75.03897865224108,763.597150912901
-638.9327650114974,59.79462915470626,783.1644853237345
-631.3073271708485,48.12897370661746,783.3184624718941
-627.9443031004472,55.69985672987208,767.6444045622104
-635.4606313063075,63.530971330678675,771.4306108609975
-646.4756058388951,63.75714438671719,786.9629282170772
-627.2631326701779,75.18031131935983,783.2878709855048
-622.782499630353,67.58413933402335,803.0030642472201
-612.5588248790363,71.02150071635064,763.8989869119425
-624.1733925448549,63.37332320415229,763.7501083448477
-631.0350629419834,67.50684484507963,787.1811474866546
-623.846063640489,71.17925081449833,771.5784697118793
-639.0143423085356,67.49787134240542,779.213084998445
-634.3430223368838,67.67336450265893,802.8297124910139
-630.7352663753678,71.4439691433874,795.0217454482419
-612.9677310804404,70.91891726532506,752.1192252196215
-632.2342492084454,32.44889947127715,759.809924897901
-624.2814824634305,47.89841587086315,763.8010941554967
-630.8168436724061,59.837763150515215,795.0594749481221
-623.6829090464125,75.08211264805006,775.4921405372886
-627.7536161686203,63.47152187546207,771.5458387930639
-639.778109752056,55.72076091223813,759.6182182498611
-635.2424120367302,55.86199160773557,779.308938322465
-627.6179939122942,63.50568236859683,775.472765929242
-639.4783131854406,59.65788521054591,767.4588162114485
-628.190054707775,59.50013511239823,759.7793334115117
-650.874661581682,82.95942039330455,767.2089857392688
-639.5323581447284,71.22982873866204,763.4941595753903
-642.8138049180914,75.26515170827959,779.1294682689809
-639.0694069840364,79.06991684214283,775.2484283623869
-632.5075331535235,70.99927090290772,743.9767912589926
-640.3777028852871,67.15585852457262,739.946872785304
-631.4164368056371,71.27296273447101,775.3891491997779
-647.4575925519928,59.64891170787171,759.489734007026
-631.880407682542,63.4328746309902,763.6348804127812
-639.6690001172675,51.88622006495593,763.5573819805949
-635.2974767122311,67.4339351358517,775.3442816864068
-635.1057700641912,55.89615210087034,783.2348457424299
-631.5530787781761,71.23870026971495,771.4622220635998
-646.9395767158001,75.22650446380774,771.218509888698
-651.1204131890096,67.45035256688064,763.3330444137397
-639.505845523191,75.09853007907901,763.4809032646216
-627.8362131818716,71.17476406316123,767.5944384677745
-623.9001085997767,63.44174616204311,771.6039626172037
-635.9246021832125,75.00033140776922,755.6861925326183
-627.5904615745438,67.37448568063509,775.4595096184732
-632.0435622766184,78.83935900638853,755.7310600459894
-615.7036296798601,94.40043235967431,779.4710732003284
-622.5653000769886,98.53385202898035,802.9021123421353
-626.8817588065242,90.7236416105398,791.0897197309989
-618.9840567370101,79.12630714872051,799.0965314353016
-631.5530787781761,71.23870026971495,771.4622220635998
-624.3100345173939,63.33916271101753,759.8242009248827
-632.3974038025218,47.85538384667548,751.9061045311091
-616.1941131783025,82.69164291577654,767.7290410078876
-639.2590741996503,51.9888035159815,775.3371436729159
-635.7339152513856,63.46265034440916,763.5767565886415
-634.5887739442114,90.78309106575641,790.9744917989324
-635.3790540092693,75.13717732355087,771.3918616449043
-642.8678498773792,86.83709523639573,775.1648116329227
-643.5765526453988,63.487939306491015,759.5346015203969
-643.2492237410329,51.98441873626571,771.3520927125982
-642.4038790004743,56.058286978733825,794.8993795026845
-642.9494271744175,75.23088924352354,775.2035608490158
-638.3607042160168,83.10962459147619,794.8687880162952
-603.8881779200849,47.03583792630511,685.6174126740528
-640.9966706265648,69.86606027542535,610.4164011155696
-684.2928013133945,63.23821080593272,696.1317065460684
-659.2893597711758,1.7415733201450039,763.4319568863987
-625.2634691765282,43.79028516363896,736.3278999454452
-628.5173836121407,71.00375765424482,747.9608225030975
-656.0639973895265,28.587642059214925,739.8428617315801
-658.6092090571195,59.84082229915415,771.0961439431406
-654.4824175431978,59.879469543626016,779.0071023234235
-654.9188560823524,36.59873657161212,771.2297267670408
-640.7600964651539,70.921976413964,728.1548744984271
-656.2822166591038,55.56606996272938,727.97438472873
-663.3621063258096,67.36857132659982,743.5270964090694
-690.3356395915017,48.26745116833985,747.1124186138999
-675.6037994626096,28.667995696797586,731.7004277709515
-668.9685060647622,37.059852243120744,810.263443683623
-650.4096709885639,13.561817746121257,794.922832975583
-631.2787751168851,13.378880657513017,791.2855052438907
-642.4579239597621,9.702038922567851,802.9041517745612
-629.9164342563465,33.03034165591716,826.5605481994363
-630.9249335909817,5.744041033380411,803.0897401253231
-607.393962260303,-13.641253639112238,819.2063548714394
-624.117308153141,-25.436311074627934,783.6743434302235
-636.9585944231721,-33.392238939903024,748.1871995023786
-652.2910474015083,-2.3576756588641383,743.9278448807698
-663.5242412036731,5.537446528631083,751.5828544915951
-636.959614139385,24.53600363018972,736.2177705944437
-664.588824930022,28.44192461238038,716.1670906986586
-656.5004359286811,43.92570347672243,724.0862068086452
-678.7475845472206,13.42813295059985,755.2528131421027
-671.4219432731871,-2.174697781607379,747.565172612462
-664.4246506197327,-6.273946760616521,728.0610606068333
-664.45116324127,-10.142668495357743,728.073297201389
-661.2798458189087,8.965966971391863,704.5086752356821
-648.3569822518393,47.83753881294836,735.967940122264
-644.2862751296315,78.7575777661077,735.925112041319
-644.7492262903235,70.9174896626269,724.1708432543223
-632.5891104505616,78.7025130906069,740.0253909337033
-646.5847154736838,67.59158326237808,783.0237644863436
-655.0820106764288,52.00522094701046,763.3259064002489
-647.5116375112807,51.91150902703779,759.5152269123504
-643.7672395772257,36.40682598032968,759.6233168309261
-647.6747921053571,28.699199012914708,759.5906859121108
-636.68734991052,43.91377279703059,740.081475325417
-660.2713464842735,36.25223700244223,727.9794833097949
-655.9008427954501,51.800054044959296,739.7663830156068
-652.4287090902602,55.53639622093173,728.0325085528699
-660.243814146523,20.811592133909134,731.9563765404089
-665.7064338994459,24.29963341202144,684.7679890686422
-676.1758602580903,24.662448440598983,716.0069952532211
-644.7767586280739,47.73944211325989,728.1732293902608
-632.4800008157731,55.55862603437464,747.9536844896066
-630.4354698087523,75.38109344169519,802.8623434098291
-636.178511520244,83.65690628298145,857.6935038978653
-627.026558508767,76.23612548627717,901.0263443683624
-615.575145437025,79.98144116492381,897.260532393835
-583.048237675455,102.34483743174276,830.9534856449452
-583.6763828626493,129.22047794098904,807.306266665987
-591.9014138365294,133.01178282084098,791.4710935946528
-610.7600454793431,133.26263300923353,802.962275598701
-619.17576338505,109.97333442103064,787.2158178378958
-648.6659562643716,87.37540342522676,830.0214650262833
-615.7036296798601,94.40043235967431,779.4710732003284
-615.1580815059169,94.53727827545595,795.1777620288275
-599.6900062712548,140.77488235024194,787.4034456210837
-624.8015377320493,128.86765613129867,732.1236099993373
-630.1907379176376,148.81840383821185,794.7688558274233
-651.7567161059078,99.18239154043431,849.5582079507274
-607.1777824231517,55.92735541698745,811.1261235998023
-605.2596962265402,51.550019629537104,756.2246026930707
-617.4748767418029,36.02759352072319,740.3955479190142
-624.6098310840094,78.7113846216598,747.9934534219127
-629.0904641238344,86.30765857861758,728.2782601601974
-625.5918177971072,93.91270209500698,716.5311293866918
-621.7383102282636,93.882926381588,716.5882334946185
-632.7808170986016,109.55015219264479,728.1446773362974
-635.62582533281,117.55594418073451,755.5464914114402
-619.17576338505,129.2826806299807,783.2266880127262
-615.5404750857837,117.61304828866128,779.395614200568
-631.9895173173306,86.57676168722246,755.7055671406648
-619.6111822079916,86.69270342063804,779.4384422815132
-621.5741359179741,59.16699382561834,728.4822034027932
-618.0754895912469,86.08148552257907,712.7449230879047
-607.0615347748723,124.47471868578975,689.2333263652727
-594.0295615730143,159.5111480474984,724.6317549825884
-598.1002686952222,128.59131303758167,724.6745830635335
-634.6173259981748,164.15187653276095,775.0281696603836
-637.1074729902668,145.21472674154785,818.2253878745547
-629.2362835422903,129.74869093931162,826.2444361734131
-637.0238562608026,98.89238424946339,830.1570872826093
-616.3307551508416,82.65748242264179,763.8031335879226
-635.624805616597,78.93755767769831,763.5267904942056
-608.1057241769616,98.1754217801186,775.6481571178742
-619.8844661530696,125.24358471037513,763.6063283588178
-631.5275858728517,152.34458250268952,755.4914267359394
-639.5609101986918,125.28947193995911,751.536967262011
-628.1635420862375,101.98793675720047,751.7867977341907
-639.5874228202292,82.80177226677816,759.529502939332
-628.6540255846799,70.96949518948877,744.0349150831325
-616.5204223664555,55.576369096480455,763.8918488984517
-610.7590257631301,75.33490029724729,814.9306847904229
-596.6543111052196,82.61128927819388,775.8714749685163
-577.1971060453877,128.85338010431698,772.0822095210904
-587.5033778099556,152.4281992321537,803.2457567059089
-595.7824537431234,148.48189748792913,787.436076539899
-590.7297599078177,164.2008229109839,818.8565922103878
-602.4259048706746,144.94654137753466,818.7454431431734
-606.9055181942866,113.92371503010713,807.0095292480104
-596.0547179719885,109.7948840837595,787.5625213503083
-614.695130345225,121.68681455950811,802.9418812744415
-615.7311620176106,129.15011752229356,771.5040304283319
-656.509613374598,106.71024253950127,821.9891604166561
-660.0082597013252,79.79564887091924,837.7264407315445
-673.5317361178385,52.35926641615639,786.5958303804052
-644.3678524266697,67.15147374485682,735.9628415411992
-663.6619028924251,63.431447028292034,735.6864984474821
-642.9494271744175,55.92154303457348,779.1926906741854
-643.7131946179379,82.76312502230631,751.6185445590494
-621.4109813238977,82.3794058113627,728.4067444030327
-655.3277622837564,55.805499329536595,755.4598155333372
-671.8869338663051,28.604059490243866,727.8316244589132
-656.5269485502185,20.747553955734123,728.0885929445836
-664.8345765373498,32.24230496652782,708.3020195479598
-667.9783616219606,36.311788429280135,727.8642553777285
-699.515124940729,13.200634263484476,711.7710941045108
-668.5779547551917,9.128091652093223,716.1732089959365
-662.0711456001795,12.629491212595537,680.9369152564842
-650.3750006373227,51.19322092661613,677.0579147823162
-659.37297650064,86.68250625850827,743.5219978280045
-633.0887713949209,71.84991816777392,838.1557412572082
-614.3392493868957,56.12365078798571,826.7165647800218
-605.7879092248628,118.06682200343646,838.4096505942397
-593.7379227361026,168.3041609520071,842.3447354601215
-589.6937282354321,176.0468661571485,846.3042935151149
-589.6661958976817,179.91566946918675,846.2910372043461
-590.7022275700673,148.7602800140721,822.8334854410019
-567.7178241295447,167.85650553450975,815.2641319920667
-607.533663381481,121.49000933040337,787.3514400942219
-613.8508053208793,164.37927324825503,818.5088689817625
-571.4346897258494,129.30205523802726,827.1122146706573
-560.9101986917042,117.36729668133358,799.8378651221366
-570.6892771741625,113.04471965452015,740.8360653230206
-616.3674649345088,160.8826663539537,857.7291939653196
-600.1356222563262,180.2776687247939,877.5300433889249
-559.810944614114,112.78469202021078,721.3768208307629
-620.9276358389461,60.32549341518256,858.0004384779718
-594.6546476115698,89.84015948361572,720.9322245619045
-613.9242248882136,167.2263209148894,704.6840664243142
-628.2277842076551,176.34462329133802,845.7261144223563
-607.806947326559,179.349726970984,767.5291766301439
-547.104260884196,101.39701121177978,756.9271871638124
-577.0319120188852,55.51824527234072,791.9554587958172
-583.69371803827,23.94834117665054,717.3948290190841
-558.1182157005707,24.385493517154178,788.4190829692097
-619.9099590583942,24.827336552237515,783.5672732278608
-597.9350746687197,35.94713791151923,748.537981879643
-579.5139012812734,70.34328746309903,717.3010151274901
-554.5940764685189,113.09672518138203,760.7001371518307
-558.3935390780747,178.79194220248507,748.6481112306446
-566.1556188912626,190.4238450439243,744.5682266625199
-546.6158168181796,171.033941254149,756.6997904483183
-562.0828723366288,144.10629521804083,760.4839573146794
-588.5383897661281,121.27280977703906,779.7871852263517
-577.8232118001561,117.11032819566316,756.4142699086844
-574.733471674833,124.61238037454177,732.8873774428578
-579.6240306322751,132.10627482371657,701.3924224888215
-587.1393391219224,120.62732941422404,709.1677586127781
-614.7134852370585,112.96212264126895,693.0817353530513
-603.9442623117988,97.22667781556393,673.6734766714425
-610.3960067913101,82.1533347269455,712.87340733074
-622.8375643058537,79.15608286213947,799.0394273273748
-598.244048681252,94.79445070436898,838.6003375260666
-555.8289528024352,79.02647693146999,843.2135336735787
-528.9084447798178,32.46184986718197,851.6231332820078
-539.6756282726518,-48.35004818159107,890.9811199543167
-547.845594571031,-75.43993106718402,883.1007530604234
-528.5913130375817,26.686687094981473,639.7179464954903
-546.8911401956836,210.4561700478757,407.27159631474564
-651.3080409721975,344.4642156087961,589.7120831272657
-620.7155348666466,342.297318656218,806.0326411159775
-628.2288039238681,195.65396950028807,841.7359648809737
-644.8644542223899,-74.86705449873301,862.0221992219566
-641.8542519616791,-175.51763344261295,858.4827642467102
-622.8324657247889,-152.55668347498894,846.9161232429017
-661.678554858183,-16.17433068377071,920.4417410634622
-685.2095261888618,80.4486751337103,888.3665675842415
-708.7670101410779,95.96528886011023,872.2632091488939
-701.1691046381793,80.43083009998318,872.4294228916093
-662.7625131925786,75.24292189483668,759.208292332244
-581.3932382617918,-3.504519892114025,678.2754559406118
-537.1508109293184,-11.090433532347948,733.9081133720487
-548.0944053269976,102.14497305399908,839.3273951859198
-579.6974501996095,269.2468885909052,893.234692784998
-598.1502347896582,404.76717329567185,888.5766291241149
-512.084146981895,445.91986050282213,807.3093258146258
-349.08454976979914,370.5873055528647,747.2113310865586
-226.8715616443944,335.59880285316603,835.5024396710396
-153.74771201174715,386.2124170843255,934.542376856521
-123.77621307989988,521.9223690047061,993.4024361020329
-124.7969490090908,692.586153273544,1039.9065939948914
-78.52763176008118,657.4793634931399,1048.563984643074
10.415891257463048,385.54348324861195,1003.7219641773695
94.62222063599701,245.71795669265248,1017.2291251344751
146.35273003523122,265.050756374501,1061.1064940627025
78.4342257549724,354.77252680579,1083.3363075056213
-32.58238032355595,479.4002029235265,1077.3301790111814
-72.94386972105664,471.5157571647811,1025.732538634498
-47.98458189085978,320.18783172643055,999.1434383810986
-39.43028455180924,227.65470369596144,1042.7516022290997
-43.58450643186002,262.3658435857301,1026.8746207930335
-88.02863363126043,382.8932408110823,1053.275073547032
-156.6824552726976,426.08739987661437,1063.8801221620024
-213.8844559559075,395.7895917566142,1086.670779522059
-235.4402369820479,302.67828463338657,1039.5598904824787
-244.6737672905631,259.87365716121207,1004.2491574594791
-286.8165989405149,295.01919615770936,1003.4996660429404
-270.52153385712757,297.9875900536881,917.3917698704452
-240.18497652103423,286.04059490243867,906.1126888386963
-255.27167789204265,274.6554633845401,917.6987044505514
-277.1384723631414,298.3200175391189,948.6888998791637
-316.65349533224907,255.89064563332028,928.6168059429061
-319.9339223893991,240.6163164791239,948.2422641778794
-331.46691275817943,225.26550860895415,952.0458056522871
-301.21091300291135,201.71210352158997,940.8044541204183
-278.9912967221223,228.34097270729558,909.6511040977297
-277.62793614537077,267.3022897727563,940.9370172281054
-258.3603983011528,228.53471878776136,949.2058959991435
-259.56060428382784,232.0955678034803,913.8543743276248
-259.2597880009993,216.72334589283804,925.6841021143816
-240.37362402043516,162.4122406734206,926.1501124237126
-228.13193088363514,181.8031641794089,941.9669306032132
-182.7076524603203,181.24130054605806,919.1008142433961
-136.1932974053321,161.64337464883525,931.6382250819598
-91.0515823446335,185.17740512815286,1006.8025268567759
-71.78547210311372,242.9575849041212,995.1226973533267
-77.23034879393066,313.09876461380804,1045.8209480301634
-83.08392774290917,363.827606777034,1088.7408034344044
-105.87917382592425,429.74002335150135,1084.2438549351716
-122.00088715310531,406.50986830365116,1068.387267823365
-63.37158968659023,343.4842683281243,994.9095766648143
-42.54205054733268,365.90272927044407,924.5022510235402
-109.61541403027537,459.69826597257986,970.2773118241195
-140.6973839180556,487.90259670733644,1067.8366210683569
-140.42308025676456,410.7325131415928,1091.6469946413913
-173.159029841995,352.5638214884798,1048.1764924821423
-197.58837115630723,340.8279075933168,1012.5312925412858
-179.68419388884075,321.0280778859244,977.5438095578002
-92.48938220493238,226.3015402813397,845.7332524358472
-26.33233571097164,15.422901806427273,686.5259798198163
-134.82789739615467,46.128494439997354,994.8422753947577
-268.05484033793397,215.63734812601655,1227.7485175875556
-290.93115385988085,250.63400855541903,1227.2896452917155
-162.00333447201646,139.9682868257764,1080.4607077850237
-104.08345357487012,111.52228334854412,979.3833776060122
-101.5114233708759,122.75649686692195,940.1375597171308
-132.2123253098663,185.8126883288381,1041.5075484492666
-137.49343557687897,259.85734170180444,1096.1235488163645
-177.8843947729347,325.34147746682106,1028.5775468687066
-209.65671253690098,281.86485701029403,898.735042037801
-194.56899144967957,196.7022377672294,907.097734700433
-167.10293525311909,150.27455859034433,931.2130034211481
-146.88094303355376,169.6746595422494,954.9989038050711
-162.1583313363891,169.8276169741961,958.6933356446901
-227.61289533122937,158.76165663095964,961.6749858514376
-260.0857581335115,182.75557912233026,1019.9813391933026
-245.2448083698307,197.9401732497846,1000.5251538496838
-191.40379232459608,143.4302233688365,1009.3650736999895
-167.73719873759134,124.07906879515433,1029.4035170012187
-174.0278280554522,170.83611630883127,1060.5558473076944
-142.01791641386203,119.69326936313624,994.4863944364284
-81.81519683072202,73.50685504224175,1074.0364956432627
-40.827499706831595,131.7534530140262,1133.3227962657995
-52.66130635844045,170.39253975618587,1117.3132517220458
-47.64379273248255,72.11473846828429,948.9652429728808
-72.53588126424417,13.920349966604295,909.5419944629411
-121.51346280330186,37.75896967873841,936.200435418823
-211.29947535600846,170.45474244517752,985.4282553165456
-330.7296579361964,175.24536921374784,983.6223379033615
-411.1607939510435,148.9601443918158,1002.1301871689111
-310.90433532347953,-3.4073103455308393,925.6535106279923
-257.1744683454595,23.15459407646852,914.5946882982468
-308.52737683102794,173.84020027226424,846.5979717844524
-454.4140965569282,213.72639994289594,852.1278928074317
-527.2187750149135,117.84758301764622,882.7581284128628
-673.9855098326136,116.02840929369358,982.6056808390226
-797.3334421030628,60.91203418088746,769.0138834362398
-814.6726965885395,-25.410308311196996,619.9099590583942
-776.1926855756044,-52.75471236354923,624.5037805978598
-744.2735286769692,-72.02857244828765,660.3682195245065
-860.7322582125395,-12.425445998378652,732.9903687803685
-934.1936339116825,-8.059724778594118,724.0260435520795
-913.1160997894287,-105.29793558452685,685.4236665935871
-822.6764491442033,-222.3817511586526,651.8515497137147
-793.6828580606018,-245.2550055319605,715.1575716478105
-803.145824517037,-140.36903529747673,753.9078074571847
-768.0839022500039,-105.78332050190433,758.240581646128
-744.5804632570757,-167.65664115676609,782.3497320695651
-831.7284699668083,-175.32082821350818,714.3509761233449
-803.2467764221218,-160.70013715183066,644.0853910356749
-803.4099310161982,-145.29324488994715,636.181570668883
-787.1678911758859,-246.61020837900813,570.0488953924124
-700.8815446661196,-348.29223027231524,524.5889269016433
-631.046279820326,-423.08127648075543,443.4694824430362
-535.4998903805072,-420.16182896299966,421.34368005384107
-510.83397490478404,-368.7518163695044,566.7501134434287
-526.0012338566178,-430.36103052520485,586.3541576379295
-545.6766581860269,-488.243181922471,586.2542254490576
-590.4177267466465,-526.12869838324,636.732217423891
-561.2803556770151,-534.5148445187705,590.1016147206234
-557.7541770125374,-561.6596901082429,586.3215267191142
-490.7455655091189,-542.4798478583411,626.5065032401484
-371.0716707540292,-473.83357211687996,620.2189330709265
-465.37298669780205,-371.173642375327,767.5954581839875
-550.939413561206,-386.1644904223155,746.7412419123759
-587.2005220947011,-475.1173948290191,719.0253552436358
-673.8927156572327,-528.0131339448233,784.6236992245059
-583.8007882406328,-565.0808380027839,613.4153864979377
-508.23063941305145,-604.670300255439,579.3589044169008
-561.7708391754575,-565.5325722851331,582.3497320695651
-523.8384157688917,-457.8485007622379,543.3088771394921
-487.5222425598957,-399.77770186557086,578.97855026946
-615.1499237762132,-387.3259471888974,561.3262429065992
-672.7057659853264,-409.98914002233187,572.3136851014364
-730.0699015463997,-502.11846043246175,603.1621399764447
-781.0914022627503,-517.4121641947047,578.9020715534867
-787.2637444999058,-498.6544844569757,508.10317488642914
-757.6093773102947,-433.5343873799922,461.23191915689864
-721.4298460738378,-394.80760504351645,496.9648146920713
-600.463970876905,-400.21006153987355,432.07721291164677
-534.2456394385443,-435.29441756359205,460.65985836141806
-494.31253282211566,-397.61896264269654,382.63831175783787
-523.9954520656902,-389.36945847970514,413.56222563260644
-673.5266375367736,-294.3380257274401,524.8163236171374
-728.9288391040774,-301.0130880575936,594.6515884629309
-759.9098570867728,-367.4628950763003,492.3720128688187
-738.097107574962,-437.48374827285573,469.3876094282961
-706.5674822696844,-486.7543962515233,611.3117119505642
-589.3918922363907,-412.88003548612426,754.1046126862896
-497.6908526357115,-319.1120311217389,935.6946561771861
-412.48132644684995,-180.62947081827127,920.8047600352824
-407.81306562383696,-25.978392213447002,912.504270061642
-438.9878296869981,111.33261613293023,1096.0317743571966
-539.6766479888647,85.94382383382705,1196.6471730917287
-531.7514135816002,-17.459682970229387,890.9953959812984
-614.6084544671219,-98.420051699612,850.780847690088
-642.4548648111231,-144.7731896213284,834.8222889569834
-613.6519606593486,-194.72806717890413,898.2160064853953
-551.0495429122076,-248.03679136096426,1048.4722101839059
-513.0141281681308,-255.18704144636553,1147.1807396001693
-490.1918596054719,-297.9213084998445,1147.660006220269
-472.45185664829484,-321.62461187051645,1108.768029857291
-479.3583945587943,-349.39352378233144,1026.3341712001552
-504.8798519372059,-303.47468299572233,947.3071844105788
-532.5100824440558,-260.9494577659038,919.2782448644545
-502.32750225612216,-281.6558151866336,794.2120907751374
-475.65274584083255,-305.11030780133893,790.7664696914849
-414.8164765745694,-286.4821320226581,764.1416793706312
-503.6551727654194,-206.61999765465274,962.6977612130545
-550.0706153477488,-128.07227748517587,1052.0004282808095
-538.9934381261696,-86.79783616219606,918.5929955693331
-484.00014276026985,-80.22494939658294,836.9779690312188
-456.64523563092393,-45.58060091876431,841.1955152880954
-529.3968888458343,-75.79397653632995,859.8308290802671
-664.1217949044782,-118.19326681384574,759.8405163842904
-726.3948443148273,-172.93469227513984,641.353571301107
-757.8214782825941,-238.4993856209817,637.1788531251754
-708.0093609948352,-137.5515594010187,720.0022433756686
-564.337464883523,127.09640906935603,587.8235687008306
-455.9191976872837,368.69777141021655,443.42155578102626
-262.19453126194986,522.9461640825359,555.6923108298961
-113.18951935676301,417.19343506702086,542.5828391958519
-122.42610881391711,147.5325416936467,665.0181254556858
-281.267303309489,-43.55952338464206,788.870817251559
-460.9514971983298,-174.10328705521255,743.4485782606702
-595.8497550131799,-176.93096011380035,741.4376978886777
-610.0849933463518,-53.93166881656836,638.769610417421
-537.2344276587826,73.85049940601532,713.9971345974417
-508.7160243304289,163.85004053371946,851.4824124446167
-547.6967160039361,222.95993025141107,937.0406815783169
-574.7253139451291,234.74071165994508,932.6722173219194
-570.1906359460163,254.19179842249906,948.3727878531405
-516.8146104938996,230.45994299786372,937.4781398336844
-492.5208914359134,222.85184033283542,973.1896213283844
-459.0395292989962,226.14450398454113,938.3581549254843
-432.72065384203586,268.2526652832517,911.1378503362515
-436.7944201128826,353.18890752703527,887.2428403175397
-420.92763583894606,462.3138380588683,989.1522589263409
-444.0497009682206,539.7296732319396,972.8469966808237
-470.687747599843,484.95969571668206,882.3665573870793
-413.89363340182433,437.91712766337133,863.7526576353803
-361.5332452978337,333.82755579122335,951.2290129656917
-384.107722820739,295.5239556831334,974.5682776483305
-370.6107590257632,280.4729443795792,1033.686325095726
-369.5482147318402,315.4971371467321,1057.1397979942185
-332.37649962015576,314.85675536498195,1018.4487057251968
-309.2840062610576,349.42921384978564,1010.8283664656127
-329.5600434399107,341.6008524827541,983.0788291618444
-296.71396450367865,338.00737254821985,1042.4558845273361
-280.5647188387472,345.7959649829453,1062.2893648697568
-300.2136305466189,369.0210214497306,1046.2186373532247
-398.1339193302504,435.02011390230103,985.6617703293175
-473.72038361723935,388.6474994009168,925.8166652220688
-463.87808272957636,376.5414285204428,878.908699708871
-448.8454263178558,360.8796072053148,871.3383265437229
-354.5543075362127,340.312950905763,817.8746054972902
-289.90022076856013,398.51733262633013,893.2153181769514
-380.04007484717005,500.2289262898136,938.6171628435807
-444.1771654948428,515.5297680655474,863.0368168538696
-424.2009248826052,480.8023127163711,890.926055278816
-338.7966328970648,453.27201439839297,915.8458800915706
-269.31418986096173,347.49787134240546,830.9014801180832
-260.19894663315205,379.6841938888408,976.1406800487426
-303.8968455078952,426.0251971876227,928.2344123630394
-352.18346734103903,445.17852681598714,864.6520473352267
-384.61962035965394,410.25630567013206,825.03811189346
-379.67603615913697,429.80936405398387,852.5184441170023
-294.86215986091077,331.6208899063391,763.8541193985715
-237.77946597461928,409.2284317274503,839.0143423085356
-233.543564825909,405.43202826653345,850.8644644195522
-248.30395700876448,459.7818827020441,858.309412490504
-261.8824981007786,443.9171378605335,803.2151652195195
-253.6584868431116,478.7445253985817,811.0700392080885
-293.4733063788348,432.3780291944752,783.1573473102437
-270.6255449108513,451.4406040798847,771.6620864413435
-288.24726078732294,408.52482754049555,716.5984306567483
-238.0425527575676,346.37516379191675,733.2585541443817
-222.68256744148107,319.2099238781848,737.5046524552218
-363.1892644277098,363.3116303732672,786.2715606246782
-450.4820708396854,379.77800778043473,820.2291302330561
-402.75935207231834,332.4539980523421,762.2348100523625
-261.6347070610249,343.5699244900145,831.0299643609185
-253.5565152218138,421.8382424171354,936.8510143627029
-380.4765133863246,476.94778543131457,930.8397872871981
-419.03810169629793,473.3767392534658,930.2738447889955
-297.5613486766633,430.48033732212326,998.9568303141236
-233.11528401645825,375.6410191043833,980.4846711160286
-227.3712225887536,348.0556561109044,929.643660169375
-115.594010186965,351.06177950676334,931.307837028955
-52.5761600546568,408.8562353097133,959.5284832231191
-90.70253348493115,447.8746564831008,962.7507864561293
-118.33398765123668,567.6372665487196,918.7622684606876
-198.65703374750808,576.1366011838905,933.2289823742053
-193.0485945761295,529.2072216302204,882.4511938327565
-170.99009345699096,494.00559824200934,859.3525821763805
-268.7094981466658,504.9920207206335,704.7911366266769
-406.5006908577343,594.1243951808212,600.3864724447187
-402.83685050450464,528.394507808477,608.5125909459398
-299.4019364410885,563.1923235763488,696.2856836942279
-339.13517867977345,470.50317896529407,680.3046912044379
-391.1743561766761,471.3995095165016,734.4669178567606
-347.0950834382792,440.6010207359293,790.1760540041707
-289.7747956743639,423.5890951548185,669.4283980768153
-306.0158157984633,466.9780200170293,747.5315219774337
-348.1871995023786,536.8744678356014,738.8149877888985
-406.45276419572434,510.17115936634843,730.1830900460403
-348.38502444769625,437.41134842173426,864.7356640646909
-138.49785604666224,420.80832904202765,922.8798825286923
-42.570806544538655,439.27131079420604,908.5559288849915
-78.04326655891666,462.51268272039897,880.4739640957922
-146.95130345224925,495.05386650895065,997.0703553201146
-170.3364553644721,490.3081072537513,878.9974150194003
-275.815900434909,474.30672043970173,728.3363839843373
-379.6964304833965,498.3220569715449,726.6987197462947
-436.5170573029527,541.4958217128175,745.3258758087625
-484.72312155527123,591.5649074862466,677.715631739687
-389.1481800614889,482.4970810623404,679.515430855593
-277.5983643751944,555.9553976128444,771.2052535779294
-352.8697363523732,638.1016962979204,805.1220345377882
-546.1681614006823,569.9183717171512,798.5316086533119
-595.8976816751898,441.95826301540285,723.6507879857037
-541.6650946041717,282.27784207655014,654.3590318814274
-559.1787205620676,293.4559712032142,591.2651109196312
-707.9400202923528,472.6466224449737,596.2810949712696
-727.2728199742013,566.4605140389431,685.9416824297799
-545.2963040385861,616.4796337179364,814.0863597660772
-318.65009967725985,552.7565478527326,809.846379752515
-340.8370850392336,602.3779782086646,715.1565519315975
-495.0467284954598,509.8683036510939,618.9677412776025
-503.63273900873395,429.6033813789623,721.1494241152687
-483.994024462992,507.7819642793411,827.1448455894727
-474.5432946011125,581.5359985316087,862.3597252884524
-525.2282889671806,530.5736413556108,744.0338953669194
-520.8822584674685,465.0150663070468,771.7915904003917
-442.369208649233,514.9872790402432,804.1961322164043
-413.02585490458006,677.57287146987,839.4089724829581
-408.00171312323783,785.9707443418498,850.8930164735156
-407.49287473296187,806.4038178175015,972.4941748711335
-385.84429953144047,771.0992030917796,937.6158015224364
-404.390898013083,615.9565193006787,878.9923164383354
-452.4593005766495,608.1312170822861,827.2784284133727
-516.7850387237232,519.1130508379518,767.7463761835082
-483.52087614017023,491.4563077095645,733.015861685693
-446.67750964906475,502.32036424263134,682.5113570893221
-409.4599073077963,475.65580498947145,761.6515323785391
-405.0057868895087,444.8817893980106,785.3691117761928
-427.71792610116614,445.16323107279254,796.8021699561012
-493.39070936558363,461.0748828601001,787.9153431599987
-479.2676398158393,535.0043083009999,846.7468503515473
-415.2335405056773,615.2284419246125,788.5659221038785
-416.5795659068082,681.5395675383542,847.1914466204056
-499.24795929292884,685.5888606200895,794.919773826944
-542.9703313567835,631.5143295620829,766.9744510102839
-436.6067923296947,515.4359541739535,859.2261373659712
-402.82665334237487,541.97610804913,828.2451193832758
-496.6099534499549,545.2290027685295,677.6942176992144
-548.9948147430571,529.593694074939,614.1679370631153
-500.00152957431953,611.0272111271435,677.4209337541363
-378.41770635232217,660.8434072797542,730.0943747355111
-334.35678850575886,621.3202265809426,675.9433649615313
-418.5863674139488,564.1834877353633,702.3468768641687
-440.2532975073037,513.5250059908328,643.3236630245802
-434.04424548648115,455.1615485410411,612.2162002314757
-433.50073674496394,551.8449215583304,607.9741807854874
-543.9727123941408,676.6102593648188,617.6716819709076
-566.6848516057983,696.2000275323379,625.1156103256465
-518.414545232062,610.3939673588841,590.806238623791
-513.1334349650493,517.0399677769677,540.1803877980759
-543.4149276256419,517.4152233433437,555.424125465883
-559.3469737372089,521.2666914797612,539.4737244624821
-509.8519881916863,513.0049507222141,524.5440593882723
-410.13393972457465,509.2472964773904,624.1662545313641
-369.091381868426,555.9217469778162,687.4172117899589
-458.8937098805403,544.7262826755315,654.7128734073308
-498.27107116089604,425.0941962851739,654.5272850565689
-390.8918947856812,389.37353734455706,648.4069483462753
-380.9761743306838,432.3484574242989,703.354356482591
-459.4453763517614,472.2081444733931,764.8391652603082
-455.810088052495,441.2291659231236,764.9982409895326
-399.95105362177713,364.0529640601021,836.7383357211689
-401.94969739921385,337.51484961735156,895.6667159529504
-424.66183661087126,357.1056375010835,903.1096245914763
-431.185980941504,286.95120148062796,840.4552013174736
-454.32538124639916,278.40495989965996,730.2473321674579
-565.5040202311698,302.58243130936665,740.2742016896699
-617.2709334992072,322.85540933958083,798.3001330729659
-561.9594866748585,361.40068219014654,830.3957008764462
-506.3472235676811,345.9530012797439,882.3012955494486
-475.493670111608,407.51224934100844,870.7815614914371
-520.9923878184702,468.8502189840568,767.8524266696579
-588.7097020899084,484.24895351623644,700.067811128163
-591.9360841877706,476.7122309861166,719.6677764578119
-537.0865688079008,430.1795210392948,755.9686539236131
-449.3848561945211,433.1234417461621,729.7996767499606
-457.6914644654393,425.3093564061123,714.0032528947195
-522.3282160574712,453.06705143958436,732.5641274033437
-466.853614639046,495.51477823721666,768.5743857484463
-429.71045158132495,529.6253052775413,721.9193098560671
-518.5756603937125,471.3250702329542,614.8205554394212
-618.8749471022215,514.5518602173016,601.3980309279929
-619.2308280605508,560.8061876379804,581.6134969637951
-613.16963489061,603.8106794878986,636.5048207083969
-743.641304624923,604.9588799437117,650.2444769620615
-794.2518597074435,473.9120902652793,661.7020083310816
-590.1709554231059,328.40980355167164,578.9081898507646
-412.61286983832406,350.28781490111305,585.4190778706286
-498.4362651873984,498.4281074576946,634.654035781842
-638.670697944762,600.5261735658967,679.3043495995065
-540.3975873514402,584.8205044536106,739.6990817455503
-394.86368943523024,475.3315352337445,738.323484574243
-426.5901199696125,386.5203713806448,730.2983179781068
-566.5512687818981,469.37741226616635,786.791615893297
-628.4806738284736,508.40399116925767,770.0335996492178
-551.9275185715816,434.30325340457756,771.4306108609975
-385.27427816838576,413.95379665839,805.3922593342274
-327.00157546154907,474.41990893934224,696.1724951945874
-505.6252644888928,514.0654555837111,646.2675837314476
-573.4333335032861,503.40534229323987,692.3832297471614
-584.1750240907955,484.39069406984044,719.7585312007669
-578.4391203927947,480.9705658915124,774.8007729448896
-501.07121188173335,503.6225418466042,779.8075795506112
-420.2566625708066,487.5222425598957,781.0730473709167
-391.78210703961093,468.381149526087,828.6591241657447
-460.3264111597743,449.8121172877589,855.167666838319
-545.1025579581203,450.4667750964907,853.8950610045224
-615.1203520060368,531.9380216485753,817.2505391749478
-655.2930919325153,589.7528717757849,757.5838844049701
-639.9320869002157,504.6595932352027,773.7994116237452
-469.3162292933877,519.0641044597289,803.7790682852964
-381.77767127408447,537.4159371446926,769.7072904610648
-413.69784788893253,595.3082857040886,725.8625524516528
-456.46882472607876,676.6398311349952,697.4746727985602
-330.0311523303065,604.9649982409896,581.8725048818915
-357.43194668923644,538.417298465837,471.79719883956307
-699.706831588769,483.30775545165784,498.2527162690624
-993.4238501425054,486.35160834739696,580.1848745494129
-1043.761121279948,374.68248586418406,595.5061106494063
-876.282930460453,388.30079588850424,535.1746009085672
-699.7078513049819,502.6171016606079,494.2635864438928
-612.9524353372457,673.3797984021048,628.4235697205469
-561.4118990684892,665.6309748996855,672.3927131079421
-552.9859840006526,587.5176538369373,598.2144769110757
-570.8616092141557,533.9489020205677,649.1472623168974
-630.8270408345359,561.8830079588851,691.3257840343033
-753.0135163384032,677.9776988064223,587.0638801221621
-899.3540097790785,647.2393732824156,482.93555903392087
-902.7965717140921,531.5148394201893,518.596054717972
-734.2884675194895,503.90704267002496,607.5550774219536
-660.6374246047326,584.5502796571715,604.4612584317786
-749.1334961480221,701.1252568410212,583.1196178103635
-786.4133011782822,705.5997715835684,617.8674674837994
-740.7432711476397,624.0000407886486,618.8270204402115
-711.0317998501017,542.3819551018952,603.8484089877788
-798.2705613027895,527.9672467152393,645.7618044898106
-963.3391627110176,425.13294550126705,682.8815140746332
-1049.9609958548538,201.33378880657514,674.4902693580377
-1004.2022505136822,10.626870541928183,589.4775483982809
-951.2086186414322,29.28023331106953,558.8116227253956
-970.5342803097899,195.47653887922993,522.6392295024295
-1006.0826072104136,433.0959094084117,670.4409762763023
-942.2759046157455,183.13185440491912,895.9430590466674
-852.439925968603,-206.42931072282585,678.8240632631939
-922.576007097225,-231.25226249534757,438.4555378238237
-779.7096867941653,216.57242789331733,23.075362126720137
-809.8983852793768,565.5386905824109,80.31519428143149
-878.7669591552673,804.6397087690497,-66.73400192726365
-879.2574426537095,773.6209612864741,-74.48588457832186
-898.8757628751919,607.6203392595841,-50.67204397016311
-924.3176823889913,361.0509195290951,43.969551273880484
-1015.708728260925,304.11098591262055,85.96350435673753
-1056.4361938072634,405.2637750913921,112.48489545359527
-1008.2036169334076,455.6112433909644,160.13215522120197
-933.6776575079157,389.72228028939554,212.49152360897963
-935.9118557305503,304.19970122314965,165.6508593658385
-944.4091509332955,269.3039926988319,149.9431508211265
-1013.2532516200743,246.79783616219606,168.61109553211344
-1058.3226688012728,239.7250845089812,203.28144677336297
-1046.208440191095,254.22646877374032,105.29793558452685
-1031.6672869940298,304.092631020787,70.0260537492416
-1051.7353020654352,389.99862338311254,140.078416176778
-1118.455333880581,398.9221599628824,213.61729030810727
-1160.365670233974,382.05197493537554,452.44808369830685
-1105.3621777059445,305.6589151239211,610.5142938720155
-941.0797774979225,257.6802475870965,581.7399417742043
-783.3602708366263,256.3923460101054,576.257947413235
-701.1038428005487,348.78781235182254,596.8011502398883
-673.695910428128,487.7170083565744,581.0444953169534
-709.133088261537,529.2796214813418,439.08776187587
-804.5326385666871,482.9192435745133,363.24738825184954
-876.9304502556939,445.0704368974115,393.68693692545367
-925.251742440079,407.2838329093014,451.9596396322904
-959.0961235488164,435.7910193593124,580.8691041283212
-964.6494980446943,471.14763961189607,635.6115493058282
-950.016570388461,392.5978800099933,518.3574411241352
-890.832241387222,286.2343409829045,358.69333564469014
-907.5637450097638,298.6055380787527,429.0435571780374
-886.9430437509242,400.2019038101697,558.5230430371229
-900.530762288855,447.1210862017101,601.3317493741492
-885.9885893755769,361.82182498610644,593.9877532082822
-880.2261730560386,400.89021225392975,641.0374592750838
-815.7281028689716,469.6445779139666,598.6009493557943
-723.4804953781363,390.6369657324367,498.2098881881173
-625.0340330286082,296.7404771252161,468.60344766051617
-605.2301244563638,301.5851488530742,594.4721184094468
-608.0567777987387,395.55403731141627,715.7755196728751
-669.1418578209684,496.58242111220454,710.5953613109473
-682.4573121300343,562.8802904151775,757.267772378947
-633.5343873799923,531.304777880316,730.6348243283894
-689.7656182284471,683.7554108691552,854.8658308392775
-919.4189657018453,655.0361234468448,902.5426623770607
-891.387986723295,483.17621206018373,746.5576929940398
-798.1869445733254,443.02590589039073,665.6727832644176
-724.0892659572842,406.92897166718507,588.4119449557188
-537.0202872540573,239.965737535244,685.9681950513174
-364.750449949779,302.1255984459525,864.9467453207773
-307.5708830232546,478.173484319314,700.3747457082695
-383.461222741711,563.0301886984853,604.761054998394
-468.5524618498672,396.54724090285674,517.7068621802554
-505.9230216230823,394.272254031703,662.3658435857302
-665.2985474142547,578.6471425002422,804.5673089179282
-707.7065052795807,608.8684719042691,686.0915807130876
-676.4328287437606,569.1260522196674,596.4279341059383
-709.495087517144,503.1514329562084,545.1351888769357
-705.3142510439345,472.309096378478,560.9999337184462
-457.14795572392205,426.31785574074735,396.11386151234115
-312.5358812642442,431.45824517036914,233.42833689384244
-455.6071645261124,575.3259267945731,187.6288029041518
-752.5515848939242,648.0704419959926,273.2023677810466
-921.4461615332455,491.20749695359785,322.22114585510855
-859.7981981614518,361.29361198778383,127.35235783881346
-906.3043954867361,356.7263030698557,8.93237751933637
-957.4166509460417,334.68207797769884,94.58275761855477
-880.0273283945079,308.1307072241795,221.4191390536014
-771.3826841989875,270.85905992362325,474.3485288044338
-700.7969082204423,405.79708667077955,482.7999367775949
-790.8184752183469,479.5082928421021,426.2576924841817
-743.9380420428995,331.5627660821994,364.66479378788887
-698.1293306072921,134.13958895239458,393.49013169634895
-603.2712496112333,6.578892894107571,489.53210321567514
-653.9317707881897,190.32595228747843,656.9113815625112
-718.5868772720553,305.03382908536554,879.2594820861356
-667.8386605007828,358.87790427923915,887.6874365863981
-650.8970953383674,343.6943298679978,935.0879250304641
-671.3893123543719,227.6791768850729,923.3989180810981
-667.4888978397313,86.6393722626993,731.6259884874041
-525.7350879250306,-6.357716447512658,840.0279402242356
-744.0899797586333,359.6783815064268,910.0906017855232
-1191.6301693238772,512.6123599802175,745.8857000096874
-1302.7588422142119,260.614990848047,592.011543187531
-1026.201608092468,29.40096771068612,506.6674144585562
-1055.3654917836368,265.63097489968544,505.433557840853
-1144.9475610937477,188.83818633274362,492.5769758276273
-869.0378467672447,-78.16838573824906,729.1633738330623
-1000.0163154594078,263.69657324366636,769.2188463950483
-1302.248984107723,242.42937190579863,721.5930006679142
-1052.867187061841,-5.072455935513147,522.0824644501436
-695.36182080527,-78.56689083428083,406.0224439538477
-542.8204330734757,-159.26437672395772,600.8861333890779
-522.8910994070351,4.945072986187944,808.6359766077102
-588.0234330785743,348.3819652990573,1081.225494944757
-531.1569190294342,356.42140792217526,1164.4649294101453
-441.70027481351946,236.1020328042706,769.8255775417703
-635.7012843325703,216.95074260833212,621.7729805795047
-843.3756685514422,83.49405760376888,658.3593785849398
-740.1059485145284,133.6980518321751,738.2286509664361
-555.4312634793738,238.46063640488853,932.9485604156365
-510.4995079869273,264.8080639158123,890.3611324968263
-624.9412388532272,263.99942895892076,700.2686952221197
-797.8636945338113,147.610040125833,513.6137213013619
-795.4612431360354,-109.66232097607238,302.58752989043154
-790.6257488540939,-124.89280233311071,334.10899746600523
-906.4583726348958,4.381292286356707,410.4296574263383
-933.8877190477891,126.1868222073797,594.0652516404684
-857.4752846282881,206.52720347927175,559.6171985336481
-901.3618310024322,167.8595646831487,523.7690750664091
-944.0471516776881,9.774479562337802,547.2103113703457
-904.6759086946105,-77.26787435056825,367.56180754895917
-871.1690536523687,26.44093548765379,312.7683765608032
-790.1005950044104,78.0502006291649,529.6630347774214
-732.5814625789643,159.62943512820385,616.590782785151
-841.9327701100784,191.98910943084542,677.6381333075007
-961.3792681496741,91.5085171796689,585.9207782474138
-959.9516654515049,-1.8152784080190485,535.2378233137719
-804.5214216883443,-57.74469365175672,474.96035853222054
-724.8183630495633,-44.22417441226107,326.97302340758574
-816.0411557463559,71.66677713592308,227.09997807610145
-980.7212452774394,133.12293188805558,463.82811663514053
-823.5778782764758,-22.66207114560018,918.0382699494731
-505.2724426792024,-198.3052316540307,1025.4368209327347
-409.08567145763334,-96.8080843101365,779.2865045657794
-544.8160177022735,79.6724671523915,494.0851361066216
-750.2765980227704,176.61688752020314,769.3289757460499
-639.9769544135868,33.495842107141584,869.579316076336
-644.4657451831156,26.638760432971505,963.7266548719492
-711.8455333880581,-70.86874722764655,817.8348365649841
-809.0479419577532,-82.0515670488903,349.38638576884057
-877.713592307261,-33.129050185333426,136.26365782402758
-1018.756660021516,5.979534295605534,59.45129070579659
-1251.293764945216,63.49150831323644,228.4572203555751
-1384.2035761447592,-18.941534570928912,411.20158259956264
-1206.059153737515,-210.31850835912368,367.4200669953552
-1030.2294871337308,-291.27581793986735,123.07566804158405
-968.1766964253849,-93.6987656335242,205.75629802226044
-848.7485532776229,74.42266217311723,505.2489892063039
-759.2725344536616,58.50275068448452,534.1151157632831
-714.7129753789521,25.83216490850597,381.83273594958524
-865.4147950625342,12.436866819964006,481.66091376769856
-917.4804851809743,-48.464664283929785,547.8048059225118
-858.034089113,-34.04730463512005,481.9280794154987
-872.5466902561019,-99.35462160880628,521.1769564530192
-903.6837248193829,-78.88810144136887,618.7576797377291
-793.7318044388248,-122.68307729958752,577.3816746799366
-734.4210306271765,-146.91867253343395,515.5573004032977
-811.7073618411997,-196.582930970311,518.4920436642483
-817.6788199843984,-271.45661362442837,361.66988727037267
-838.2556734460801,-244.6034068718676,318.10047263846474
-916.5066561975802,-193.1036592516303,383.4734593362668
-938.2357889799271,-246.64283929782346,434.3481209179486
-875.1795975180108,-286.3832195499993,372.6328562760984
-847.7155807538763,-255.57249417487117,380.7895662637089
-841.2995263418192,-200.89327140256867,443.4959950645736
-921.8693437616313,-130.66541581477875,438.1271892032448
-980.2695109950903,-196.02208705317312,433.5486634069739
-931.4271438258735,-316.44139435994964,422.91200358940114
-918.0851768952701,-320.94242172403426,364.2579270189107
-1003.5455532725243,-204.60197926916942,319.4148868369933
-960.4023800176411,-188.29671702365235,449.5184390184212
-832.3107279244186,-212.2172199476886,482.91414499344836
-790.8776187586996,-193.47381623694127,452.0748675643569
-812.9544747696717,-166.99688476696937,365.31333329934284
-974.3551569598183,-147.32248015377323,260.78936232046624
-1058.9650900154488,-181.38406081587496,271.41072639484435
-979.5781434026911,-297.25441409655696,363.2565656977664
-837.1452024901471,-274.22310371023747,467.3532755834052
-855.124838757374,-155.0294952914604,368.56622801874244
-968.1297894795879,-119.7238608495256,323.5834867156471
-922.4689368948622,-157.8490106203444,426.43614282145285
-821.6863047014017,-223.13022285897836,569.4523614078203
-820.4055411379014,-176.46596952068242,596.7858544966937
-880.0956493807773,-225.7019471481087,662.7767892195603
-774.1603911631394,-331.2986595830381,629.3984184201538
-718.412505799636,-308.0919580080864,677.250641146569
-803.8535075688437,-202.33616984393245,746.2568767112114
-959.8823247490225,-173.59036980008466,794.8432951109706
-1016.1920737458765,-245.14997476202376,962.999597212096
-933.15862195551,-358.23650278127604,937.1528503617444
-741.4499344832334,-392.8548484956637,696.8149164087636
-622.1869853619738,-227.76381333075008,658.7978565565204
-619.0013919126308,31.782616897717368,697.2156648804638
-683.813534693295,234.27878021546604,785.8279840720328
-765.2745840832497,268.52900837696876,651.055151351379
-697.253394380344,121.90095496423348,754.6093722117135
-530.4747288829519,126.62326074653424,564.7851203010202
-633.4660663937227,168.1787358578108,362.946571969021
-848.3029372925516,34.91895805397358,415.1223914384628
-896.3876553155258,36.806350792574435,583.1542881616048
-681.367235498361,86.14715524669485,664.7020134296627
-281.3182891201379,175.55944180734502,631.1462120091979
8.112821401803878,471.79719883956307,697.2758281370295
61.431783534642314,690.4783998613186,968.1359077768659
7.664003507823773,780.7599944935325,1065.144570266095
96.41671722759557,175.40954352403728,83.4331805458541
-949.1008652292068,11.997369132170517,-932.4550177685551
-3329.0063375362643,-26.784885766291247,421.3426603376281
-4640.78966823533,-1159.447925642294,-187.10262933825518
-2767.030535401998,-2292.740130421704,-233.70467998755947
-770.7647361739229,-1755.7371783432673,131.90335129733398
-545.1790366740937,-538.4468702360134,166.49722382261018
-747.4203729102192,333.55427184614524,152.67700998812032
-802.7358985994199,622.3980666180603,386.35109848929045
-845.0561608704298,393.8939393166882,323.6936160666487
-926.4621455848838,-79.74394925892125,72.89675883201706
-1061.67753514197,-423.4932418307986,21.011048625167618
-1337.6637281844464,-279.9651257055162,251.86990460554833
-1543.1875309101479,40.95476029021124,479.2615215185615
-1456.5932301040623,150.75790407529584,287.8811826668639
-1119.8319507681013,27.832338260262173,250.1700376785141
-817.1179760672605,-108.11949034583677,455.31858483783975
-679.2095159916996,-90.9589921124951,763.4472526295933
-525.5056517771105,227.28352699443747,576.2936374806892
-525.5127897906013,459.8685585801472,194.8208613542851
-669.0541622266525,369.91123370366034,-38.57841362748748
-1012.1784707315956,141.79969714428475,110.11201582599564
-1314.4651843391985,15.375586974145097,416.05543177333755
-1255.494995742685,-64.88189136963184,578.1189295019196
-927.5512025003443,-80.88970239582325,375.08017518724546
-814.7695696287725,66.1310437305298,42.680731952297684
-1010.9609295732998,185.58223246470507,247.34440405235225
-1159.0808278056218,-10.544579443540863,681.4192410252227
-931.8523654866852,-326.1409349777957,634.8681761865673
-593.7103903983522,-477.7462232260762,420.6655687722108
-416.9211708381558,-254.3702487597702,30.098249657120427
-652.7438014000704,154.7470339004655,142.92444412719942
-1031.8304415881062,188.3171113479119,533.519601494904
-940.7891583772237,-191.223302554899,571.4846558202853
-694.4389776325249,-385.41805815441563,273.6347274553492
-772.0903672507942,-306.73471572861274,350.6987605349432
-904.1334196693061,-323.29694645980027,545.0077243503133
-823.4820249524558,-401.2277383204255,554.3279305369316
-819.6876609239649,-157.97341599832768,502.54368209327356
-947.6732625310377,-22.030356951660355,449.1482820331102
-909.2024289640195,-101.57474774770182,241.9878347855792
-830.8066465102763,-138.5875910734043,66.67893725176283
-830.5272442679204,-46.82781581885762,-55.28972686901236
-771.4917938337762,25.41510097739799,-144.91493017493232
-862.6421866794473,235.00583787531932,-150.91290093966853
-1078.6252186016634,286.8288355350706,-170.02136305466192
-1471.6544385697462,121.31563785798413,1304.2272335609002
-1070.4063059250611,-591.8759209312049,2804.005445284578
-115.51549203856567,1.5172561476141193,783.3521131069224
-203.58838135346937,797.8932663039876,634.1360199456492
-780.3296742516559,468.5606195795711,508.86898176237565
-1302.667067755044,-194.31712154507403,-89.33662361764722
-1323.18375796016,-656.0425833490541,-252.9202123049156
-1025.3960322842154,-228.39705709900934,-194.95750332682417
-1000.0448675133712,337.06617448364125,753.2725242564995
-1018.2131512799989,543.2915419638715,1297.8234157433988
-1126.5314862873663,568.1879133037277,1390.3116762604968
-1144.7130263647628,284.69762864994675,1257.5548224929003
-869.07047768606,-231.65607011568684,870.9671498421991
-828.8804025839609,-52.145635869537514,215.55169196412643
-882.702044021149,-8.219861012680171,320.56206757659345
-919.7687283628967,200.9891247265886,319.3006786211398
-983.3154033232552,286.94814233198906,357.30550187882716
-919.254791391556,428.970137610703,287.14290812866784
-854.2070941656939,304.76768315377836,300.3094838706388
-880.2822574477523,374.71511678299936,311.45702151091353
-841.5911651787309,305.93933708248994,441.7808323943447
-685.5021847419864,14.599175049583701,449.0269358037659
-720.1633585373191,-53.64574039044935,574.3255851896417
-741.1878674164981,109.25851335573311,600.9340600510878
-804.5081653775754,182.6933764333386,536.9438085380839
-749.6137824843347,91.69726665069112,361.4649243115642
-645.0459637083001,178.85312517526373,248.92292475004209
-794.2691948830641,407.25935972018993,563.8112913176263
-927.058679569476,464.88250319935963,832.4269755726983
-749.5311854710835,294.65311803725024,988.7209189682512
-530.1820703298272,153.85376249789687,1012.1040314480481
-490.03074444382133,183.86095149719836,941.9608123059353
-560.8112862190453,234.24512958043778,889.7105535529463
-726.0940280319987,269.3896488607221,781.151565519316
-835.8746360887766,370.16004445962693,704.5994299786371
-850.4983862990931,405.2342033212158,719.9604350109365
-885.7193842953508,535.6752815691394,565.9333207568334
-848.5823395349075,382.42009248826054,335.45400315092314
-765.1868884889336,295.4607332779288,203.558809583293
-931.8921344189913,153.5978137284394,201.54079119780968
-1009.6149041721691,99.96206655687723,192.70800936099485
-1063.431447028292,196.9602259691128,175.87657354958117
-1198.1257616005466,177.73857535447888,71.8834668311809
-1279.2441863429408,131.97269199981648,74.747543758572
-1372.6195999653298,62.94769365685531,61.80775290236728
-1320.124609321226,-60.417471817593174,157.20149082510338
-1199.7369132170518,-45.659730896891396,182.50268950151175
-979.7372191319156,-112.91929456032386,209.57207609122386
-773.2059367877921,-26.092396486057936,149.57911213309336
-881.7129192945604,68.26979651562971,222.20330082138142
-971.8884634406246,170.9686794165184,377.49078431472526
-880.7513269057222,197.9462915470625,445.4834219636675
-812.4588926901645,109.31561746365988,544.9210484722103
-656.4851401854864,92.14155700468561,492.37099315260565
-675.9974099208191,96.09071395430654,484.2163225974212
-823.0374286835975,113.51276939627704,572.2208909260554
-847.032370891181,182.9860349864633,532.3805784850076
-856.4198783478558,227.0979386436755,696.9250457597651
-880.6055074872664,250.18125455685686,661.1635981706291
-942.6521798983345,336.51654744484614,742.3605410614227
-863.7098295544351,222.40418491533808,598.7161772878609
-805.8909005623735,231.55409849438905,375.84802149561784
-858.3298068147635,130.94379834092172,328.30681221416086
-907.8778176033611,92.8488321700071,351.2412495602474
-882.6663539536949,125.08654841357652,516.3435016035038
-796.3392187954094,287.0205421831105,528.8645969826598
-861.1411644139437,388.11316810531633,527.5532419327702
-998.3827300862171,284.2887224485426,478.7516634120725
-1055.8447584037365,210.4469926019589,391.79842249901856
-1025.3348493114368,101.00013766168877,294.50933805122037
-889.7013761070295,73.11701753402029,324.1076208491177
-811.9082459351564,239.76179429264837,422.826347427511
-854.432451448762,278.67416497988614,410.2838380078824
-940.2823594193736,326.3989231796792,479.4797407881387
-1081.735353051246,230.23866457964752,418.81682327808176
-1126.9393727725576,74.38493267323705,257.7557065868569
-947.0767285464456,44.64419552038668,119.26396883747255
-862.4096913828882,47.82407855893705,116.59639122432229
-895.2720857785279,3.2019496973992143,288.938628379722
-929.6365221558841,112.67864153406109,386.1695890033804
-971.5672528335366,48.46476625555108,523.1195158387421
-872.8760585928937,-10.613410287916873,493.4009065277134
-797.7066582370127,-55.16236431401142,337.6922802384097
-809.4507298618795,-9.772695058965091,211.77568282746915
-1023.060882156496,11.750291893765967,267.3726501914518
-995.523445825027,-37.52443494975349,405.31272146961504
-933.0790840908976,35.57361586270542,413.85080532087926
-1030.7903310508686,79.45047493282621,475.03275838334196
-973.712735745642,8.311227585362994,358.3894602132227
-773.4149786114525,14.467121800003062,357.44418328379214
-713.8951629761438,45.34677999112847,401.40210979284467
-817.419812066302,23.10891079012711,419.54999923521285
-868.5045351878573,4.934376163113806,505.1878062335253
-876.4848342706226,43.54432961306869,489.23944466255045
-959.344934304783,59.130997843300214,429.07618809685266
-985.5455226810379,-30.28669321327875,358.34255326742567
-913.7289492334285,-10.89729928160993,426.07108441720675
-885.5919197687284,63.55870761167168,555.7534938026747
-852.3094022933418,63.93630852533741,626.89399540108
-813.8467264560275,-10.751887749639277,529.6069503857077
-864.9508241856292,-18.34194143769789,501.39446192124734
-884.8434480684027,-87.86435734934967,497.40635181229067
-878.1836814814438,1.6337791192711069,559.9985723973019
-1005.2117695645304,41.268730912187145,554.0373114162329
-1004.0013664197256,-102.31424594535342,507.4444382128454
-824.5241749221193,-123.43256871612633,467.0330846925301
-715.4838808359634,-19.70764736173923,480.0905507997125
-754.2045448751613,141.7466719012099,329.83026823634987
-800.9901444428017,84.03879000474168,325.39960129096073
-797.8269847501442,-26.290119459754354,106.04028898757477
-959.6987758306864,-67.52795297068826,111.60386064558234
-1028.5265610580575,-119.92780409212118,248.11123064451164
-956.8812999342285,54.8905079716315,389.88135601862007
-880.1935421372233,0.13325753442816865,391.2151448251952
-923.8516720796603,-128.29763476824402,269.3305053203694
-979.9258666313167,-197.92793665522888,221.63022030968781
-1058.7305552864639,-180.32763481922984,389.14919977770194
-1013.5346932948562,-91.12734725925776,452.3195994554716
-938.9852803964657,1.3276399178108735,472.7465546338454
-988.0438274028338,13.560084228559194,499.44272508960756
-980.5907216021783,-16.461788684209186,609.5455634696864
-941.8098943064147,-20.55962025768229,617.9898334293567
-957.3891186082915,33.584659389291964,601.8752581156665
-1039.0296380517302,54.33547643690762,686.9236691428777
-961.3690709875442,85.7801593816441,809.6444759423454
-868.2526652832518,207.80898675898501,692.8890089887985
-945.6236329429521,281.70476156485654,667.9324743923767
-944.060407988457,227.0336965222579,613.1961475121474
-813.305257146936,182.47923602861326,505.4152029490194
-797.8382016284869,209.40688206472143,501.63205579887125
-876.278851595601,233.82602621690387,567.0927380909893
-939.4156006383424,223.34130411506482,636.8260313154849
-928.0447451474256,176.86161941131786,641.0772282073899
-912.6021628180878,103.37373109063748,657.2550259262848
-890.5273462395417,134.82381853130275,732.0471312833639
-880.7758000948338,173.89628466397804,783.0818883104832
-842.8688695935922,200.47518775524773,760.0118287080707
-808.1240790687953,183.77835448394714,654.6241580968017
-821.0204300143272,148.77557575726678,623.151636899451
-856.6554327930537,148.80412781123016,595.1461508262252
-905.7425318533853,195.78653260797523,613.8752785099907
-853.5667123839437,194.92589212422186,563.6399789938461
-842.2529610009535,217.94598563219859,551.958110057971
-934.2741914925078,303.7377697786706,546.364966629787
-984.7511637511282,327.2004201230798,529.8312879525629
-1001.0084993346353,265.31690230608825,518.0229742062785
-988.7576287519186,241.2332447879755,431.9456695201726
-982.1417099621177,221.5904513773817,404.63868905283664
-963.3911682378795,167.245695522936,401.1787919422025
-950.6589916026371,198.34602030254982,428.73662259793105
-933.063788347703,237.39299352990065,483.81353469329486
-904.5912722489333,314.7986315408422,511.45090321363574
-884.7159835417805,298.3577470389991,421.5374261343069
-845.5160528824829,212.26922547455044,347.8476340034569
-889.6218382424172,181.26985260002144,304.1211830747503
-917.16743230359,100.23535050195531,303.98148195357237
-917.7394930990706,96.22990521737802,288.288049435842
-935.4978509480812,53.279866213232864,229.2974665150689
-930.8734379222263,118.09945292225176,127.10762594769876
-984.6960990756274,200.64446064660206,224.13872219361352
-997.0010146176321,197.68116533168822,314.2306496102135
-969.9438646224758,131.8411486083423,330.55630617999014
-947.6936568552973,46.482335965900695,323.3285576624026
-834.7713031463345,57.49924795929294,356.3795995574432
-792.0390755252814,150.94043327741892,458.74483131344556
-761.9023825669317,213.3154543090658,537.4781398336843
-778.6869114325484,140.7116599450373,623.8134327216736
-787.4564708641586,105.74661071823714,600.2518699046055
-794.691357395237,128.0998098229263,498.0283787022072
-800.0713801349086,104.57495678952549,458.78052138089976
-768.3072201006461,57.232796112841804,384.849056507574
-793.4197712776535,83.94507808476901,321.58892180306225
-890.2846537808529,151.20555949279318,402.32801211422867
-931.1518204483693,83.396164847323,570.7025334849312
-877.3373170246722,-52.2204830395701,595.5142683791101
-794.9778976510838,-151.02506972309607,436.1713735067531
-742.4686309799984,-52.38985790254573,263.942324850994
-726.9016432726773,52.79733650125171,358.0111454982079
-705.6701320022638,41.55537313965524,417.237282864179
-777.9588340564821,57.80088001509181,439.6465663605819
-823.6217260736337,153.85478221410983,324.8244813468412
-891.5205498309821,194.37218622057483,468.8818301866591
-884.2479338000235,93.79461895754413,477.17926101166046
-756.99142928523,-16.293841423931724,393.11589584618605
-681.0501037561247,80.37189050287306,452.7958069269323
-736.5379614853188,255.18398229772657,482.7724044398444
-765.0726802730801,136.27895356722226,573.0121907073262
-722.5647902188822,11.404302182702557,491.6531129386692
-754.6746340493441,61.525291511372394,443.9079604146167
-740.6158066210174,132.57330484926047,612.6373430274356
-671.7258187046546,186.98230282512378,699.8271581019003
-574.9720852686698,181.4850127209598,603.1794751520653
-588.5791784146472,219.67950319426103,536.1280355677015
-722.8054432451449,318.4267818266177,643.6744454018448
-807.3174835443298,304.69630301886986,764.1182258977327
-847.2424324310546,300.78365190967355,724.2870909026019
-777.0818781133212,330.3472643563297,631.0472995365391
-716.7626049670378,314.0878893403966,596.6838828753959
-627.3416508185772,290.43047319930866,625.5755023376995
-605.6380109415551,243.55411888871333,594.6617856250606
-675.7088302325463,259.3597201898712,570.0111658925322
-708.5630668984822,229.1903963127062,628.4898512743904
-712.0158259956255,253.48819423554426,746.0947418333479
-762.0298470935539,284.79042282532777,741.3153319431203
-787.5859748232068,293.0786762044124,780.1512239143847
-735.0552941116488,284.58240071788026,741.7201592796725
-707.3455257401865,330.90198997618967,753.7528105928121
-729.7231980339872,411.369835774704,647.1812494582758
-785.4180581544158,434.52045295794187,591.3242544599839
-838.9837508221462,392.55199278040925,610.2868971565214
-773.4741221518052,372.73686732982213,615.2600531272147
-727.2136764338485,342.4849464394059,733.7928854399821
-692.6952629083328,299.6956147104261,738.3795689659569
-691.9039631270618,296.03279407340943,761.9513289451547
-729.041007887505,353.6131094716341,678.7832746146747
-786.240969138289,284.6955892175208,709.5562704899228
-826.3025599975529,280.7482677570832,665.7982083586139
-916.243569414632,404.68457628242066,601.2389551987683
-982.1253945027102,365.48158647448423,486.57084733318726
-915.597069335604,271.5494077998094,425.090117420322
-879.6632897064748,333.3860186710039,448.9677922634132
-827.0051444682947,368.39899455981407,516.3567579142725
-729.0042981038378,294.69696583440833,580.8670646958952
-678.6986381689976,272.18775014913354,703.3604747798689
-681.6242039840313,229.96945949942133,738.7803174376571
-689.7819336878548,24.238756354106656,656.9348350354097
-750.663070467489,-64.9112591965656,585.681144937364
-843.9660842387564,12.83537191599578,544.7742093375415
-901.8716891089211,147.42547149128401,402.1668969525781
-965.9618728107968,136.7021357956081,444.4137396562537
-975.8786129820072,151.65525434271643,377.49588289579015
-913.5290848556848,-7.981808262760476,320.0991164159015
-838.392315418619,-225.3277112979458,310.1844156771171
-869.5477048737338,-194.27735261276788,293.91484349905426
-909.0117420321926,-55.184288212590445,237.90896993366746
-958.9727378870463,41.78378957136229,221.13565794639356
-979.9850101716693,26.04722305782301,173.7779975832726
-966.232097607236,-113.51684826112896,154.8316703461427
-945.399295376097,-226.26483049767253,112.35335206212112
-943.9553772185202,-195.00746942126008,147.5916852339994
-938.6671289380167,-62.37583680461728,272.810796755263
-920.8557458459311,26.930399269883196,323.79660740415943
-940.8034344042054,-11.710624933081125,311.85471083397493
-965.3694176910568,-42.789739615465024,276.2696741496842
-995.750842540521,-120.67423636002103,193.66042430391624
-937.9115192242,-199.34534219126817,100.6011227075505
-949.0631357293267,-160.53494312532825,104.22825327711298
-933.1606613879359,-91.01691199339226,104.23131242575192
-924.555276266615,-21.33684795521407,115.89890533464538
-906.2421927977445,-2.415626131247674,84.7126184782775
-910.3689843116663,-2.454273375719538,76.80176206961603
-933.8714035883813,1.490376428240021,64.66255041222028
-917.1490774117565,13.285372680782942,100.1947657966788
-897.808120000204,48.90834280819649,206.32937853395404
-877.9511861848848,138.72729219458225,316.2129779282426
-873.5888402257652,178.44115982522067,433.8831303248307
-851.1193934727966,27.484920946500594,446.5021184604325
-893.3866305007317,-154.66341717100133,375.84088348212697
-1016.0146431248185,-192.15838232219977,401.60299388680136
-1065.0425986447972,-156.7487368265412,424.2967782066251
-1030.1581069988222,-101.90064904936958,530.5991342609352
-963.7766209663853,-36.53561613802879,543.1467422616287
-907.3649003482333,-99.12100462441305,516.7299740482224
-909.3074597339562,-175.85006092804375,587.6033099988274
-884.6598991500666,-171.78343267068777,631.1298965497903
-897.5572698118115,-110.23948035261789,579.7086670779522
-868.8838696190851,-126.46520473352267,521.3237955876881
-845.970846313471,-239.687355009101,427.8576272223441
-841.8715871372999,-262.8267553139961,439.77097173856527
-892.2119174233812,-258.6398005435088,431.15335002268876
-967.290563036307,-245.95962943512825,484.93114366271874
-983.5224057144899,-265.3556515221814,465.1302942391133
-1000.2447318911147,-277.1507089576971,429.59828279789747
-997.3466984138316,-219.49085569486016,390.2005271932822
-1041.0180846670373,-149.97170287508987,338.2918733716407
-1060.2907210923202,-111.20413189009501,330.02299460060266
-1086.4668362794637,-76.04033997338541,345.21064787669593
-1106.2799222976248,-18.10016672360082,317.24595045198924
-1092.870654096965,51.789652939586915,356.4581177058425
-1061.361423115947,167.57914272457975,352.6148072991287
-1029.6890375408525,248.65269995360293,360.6644470843765
-1041.5279427735263,287.29280641197556,344.6589814054749
-1030.1479098366926,216.6468671768647,243.02692560660373
-998.991500665365,166.28614256652378,263.2866473260492
-1013.8314307128327,112.48285602116933,290.7180331713684
-1039.141806835158,97.66087297904994,341.40914583471425
-1005.8868216975218,94.16977255229871,412.5618840276751
-1017.3096827153005,17.05567140664753,432.2740181407515
-1041.905237772328,-56.51104097729603,404.6815171337817
-1071.7523313261922,-32.85535835377015,427.70263035797143
-1077.2689960384025,6.370207971121638,482.43283894092275
-1054.1112408416739,57.4041084366221,584.6471526974044
-1043.5877695237416,69.63489060994326,663.2560558396599
-969.4207502052179,11.380644766561467,703.8101696297921
-914.2071961373151,-105.5722392458179,654.011308652802
-913.0793900057615,-183.52342543070264,591.4976062161901
-952.1314618141772,-218.11321909112695,583.1797810669291
-980.1695788062184,-156.38163898986915,539.3809302871013
-990.0414514640577,-70.90637475590545,570.341553945537
-966.1321654183641,21.79857545645047,574.3113091626601
-870.4787057761826,78.81192864025942,544.1552415962639
-801.7345372782755,61.677127255484805,419.65503000514957
-777.043128897228,79.20931204845692,239.43242595585653
-890.374388807595,68.0898166040391,194.60162236849487
-1022.4082637801902,85.29028771292951,271.05892430136697
-1048.5435903188145,70.26313776875897,298.1905135800707
-1004.0962000275324,26.973839180556055,255.83150209296753
-947.0308413168617,37.92844651333534,233.10100798947656
-922.111016504107,80.68208817486094,276.50114973003014
-906.6164286479074,111.47843555138606,272.70474626911334
-889.6106213640745,60.557580825256345,218.18663865846136
-913.8768080843103,33.41569241280152,190.44219993575788
-963.0995294009678,61.054590507461775,209.23455002472818
-970.6515476742825,108.49168676357372,314.92609606746447
-946.2497386977207,116.35879734669842,350.5865917515156
-912.3309183054358,27.07611671671774,347.471358720868
-893.3978473790746,-14.641187357558392,457.78527835703335
-817.0731085538896,-18.28850830813785,549.2069157153566
-784.7919523996472,7.87482983485696,475.03479781576794
-822.3450413749855,12.280544324514489,501.9298129330608
-827.4324055615324,-60.3790285163639,592.3643649972214
-807.7743164077439,-127.07805417752242,506.5430090805729
-861.3869160212713,-104.40262474953222,399.6981640009586
-902.293851621094,-112.4237124808166,332.39383479577634
-933.4237481708842,-19.57600199864378,304.1425971152228
-936.9774591731123,3.7002850106815277,307.9349217112878
-925.9002819515331,6.355462874681977,182.50370921772472
-913.0304436275386,-1.1292133399274984,221.9687660923965
-872.5334339453332,26.09892266982099,273.50318406387504
-820.884807758001,72.44461666318264,309.4420622740692
-766.743995146151,21.871485165678397,326.1225800859621
-741.652858009616,82.98124232026228,259.57284087838354
-815.342650140466,177.10941045107148,336.64401197146833
-899.3009845360037,177.97005093482485,358.93194923852695
-957.2840878383547,127.16982863669041,252.26963336103566
-997.0550595769199,151.3248662897116,322.23542188209024
-955.4394212090776,221.3141082836647,397.19068183324583
-903.6459953195026,243.52862598338885,331.1732344888418
-873.4012124425773,225.70398658053466,96.20889906339066
-915.6235819571415,94.76793808283155,127.4155802440181
-1023.3667970203893,65.74141016555093,247.56262332192955
-1090.4335323479477,82.29925611702265,309.29624285561334
-1062.5646882472608,171.13999174029868,317.2632856276099
-1004.6611228095221,191.0244578933683,427.95246083015104
-951.2290129656917,78.48358001968053,436.9820478960706
-796.4371115518552,112.21467065715612,450.96031774357203
-753.5345913232348,281.9403160100544,431.4072593597203
-828.050353586597,380.7192058450134,594.7923093003218
-768.445901505611,249.42054626197532,674.6197733170859
-679.2900735725248,278.7669591552671,573.8167467993659
-810.3888687778192,248.86276149347643,575.8786129820071
-839.8443913058996,205.96839899455983,512.7877511688498
-913.8594729086897,253.6717431538803,590.0108599776684
-967.1906308474353,309.30644001774306,706.7622480663632
-913.4026400452756,169.82149867691825,731.5872392713109
-786.8273059607512,40.25227779109074,631.8793879663291
-681.9933412531293,16.475962739569578,661.0024830089786
-703.0729148078091,248.88009666909701,671.6768723264316
-749.6199007816126,477.0130472689451,615.2651517082796
-823.8980691673509,423.2454507910449,594.7107320032835
-927.011772623679,323.8730861201328,640.5969418710774
-907.3332891456308,227.27944812958557,672.6150112423713
-811.4340778961216,241.8736265697257,658.3032941932261
-816.1594428270614,233.96062875701693,634.7111398897687
-894.9763680767643,334.52708111332623,562.5488826459597
-1030.0051495668756,346.1192150224593,442.7485430804607
-1035.9806865749263,256.79207476559276,399.7889187439136
-949.2334283368939,240.18803566967318,350.1246603070366
-923.412174391867,217.51464567410895,433.0051546654567
-875.0694681670093,167.48023025192091,504.5413061544973
-846.1248234616309,209.25086548413577,442.0398403124411
-935.4019976240612,305.3234284898513,291.2421673048391
-1020.1139023009897,231.62241948065858,196.03126449908993
-1083.4586734511786,185.33138227631252,155.99210739651156
-1192.7824486445425,86.3943344567207,244.95520896534498
-1062.7788286519863,-33.594550636557855,353.27150454028646
-837.1135912875448,-62.80748267757084,313.5800706663336
-741.651838293403,5.74360255540883,275.5324193277011
-792.8120204147186,106.27278428413375,223.4065659526954
-870.2360133174939,133.81226004802863,206.45582334436332
-922.3741032870554,17.829228125812588,170.74434184966327
-983.4836564983965,-0.8672309096378478,189.51527789816097
-1050.1445447731899,-100.06332437682595,286.9664972238226
-1071.150698760535,-173.72803148883668,251.5792854848496
-1045.9433139757207,-217.85625060545652,99.04534168141008
-1015.7179057068419,-168.0400544528458,71.85766801099254
-1043.159488714291,-151.50637577562168,165.581518663356
-1017.8052647948078,-259.2567288523604,252.66630296788406
-930.5114386666191,-275.724125975741,218.70873335950608
-892.8492400564924,-264.6540867676526,191.7627324315643
-897.7948636894354,-226.28012624086722,152.31297130008718
-930.3227911672183,-152.0957717467229,198.67130977448977
-967.9584771558077,-101.36784732808862,213.63462548372792
-951.0373063176519,-48.03852487852631,135.21538955708627
-995.4163756226643,-40.486914491696965,75.65611090433532
-1063.3804612176432,-98.52487852630614,15.964575058761149
-1047.1771705934239,-179.54551248387577,55.726879209516
-1000.9666909699031,-159.6049619390924,162.31638734940069
-948.4737397582253,-89.87625743755514,217.8124028082985
-940.1956835412706,-8.69257085753035,217.6625045249907
-960.6155007061536,-31.008040462339334,299.84857214237286
-931.6677968521361,-143.71268475983135,269.2652434827388
-845.7740410843663,-120.9159091024968,297.947821121382
-868.8237063625195,-7.727664390999986,387.4870623505479
-928.7983154288162,63.68076764236514,531.5586872173475
-905.1582344633489,21.15146354769468,555.6035955193671
-856.0436030652671,-60.58113626977613,544.841510607598
-838.8195765118569,-157.78986707999167,506.18100982496577
-858.9314393804206,-161.7147547837437,482.34514334660673
-913.9991740298675,-126.82210540806496,442.15710767693355
-995.0676326778258,-44.13760050577925,530.9295223139401
-1028.4347865988896,-89.88410925239506,577.6794318141261
-929.8027358985995,-156.69979044831825,547.9852956922089
-871.0456679905983,-176.2161390485028,580.3286545354429
-852.441965401029,-129.19192588702566,662.8655045300893
-862.1680186404126,-67.84865371966983,591.8698026339271
-926.8251645567041,9.112632754304478,488.6011023132263
-1029.7400233515013,28.51167320134807,404.57750608005796
-1105.4437550029827,43.90204606058135,328.82380833414067
-1096.5620267879451,-40.82474647305655,380.26237298159924
-978.8174351078096,-131.0019221650615,350.9332952639281
-887.5630312084148,-74.09523129713001,305.013434761106
-881.1602331071264,197.8443199257647,433.70366027134656
-893.6140272162258,392.79774438773694,589.8446462349528
-879.6999994901421,392.3021623082297,546.8840021821928
-895.0589650900156,361.5393635951115,554.6063130630746
-917.7323550855797,264.28596921476753,476.1024406907558
-912.5328221156054,159.3265794129494,425.51431936492077
-858.0911932209266,74.07167585261023,458.01471450495336
-809.0051138768082,85.01741165433661,427.3161579132528
-896.5457113285373,163.21271790060828,441.4392274629971
-1022.0717574299073,164.60565024753615,486.6503851977995
-1073.2615113213994,53.718446156434666,588.2977367398654
-1036.1030525204837,-57.921512443087096,683.4219636675114
-966.9836284562008,-73.96623719618832,680.5861328792198
-945.8551085232981,29.62673288023943,602.0608464664285
-894.9437371579492,87.37336399280082,614.4024717921003
-773.7953327588932,75.28931898252718,667.2778165836448
-592.7916260904591,58.4158708631388,670.0463461018799
-460.3039774030887,189.07781964279343,687.2887275471237
-420.6798447991925,246.9824047967451,707.3098356727324
-392.49794782112144,276.97531776906493,625.2135030820923
-459.95319502582436,240.24310034517399,353.52847302595694
-754.5165780363326,201.4663519142623,86.2975633881091
-1360.372808247465,37.99166891853997,309.32683434200266
-1684.1225087058274,-226.99392758995174,246.50211846043248
-1635.441256698261,-467.1727858137081,255.89064563332028
-1197.146834036088,-368.4132705867957,434.8059734975756
-726.1827433425278,13.362055339998879,275.7384020027227
-610.5968908852667,327.1484145962179,-10.086135428510246
-823.701263938246,350.66816904855386,-162.49279825424586
-1162.6192430646554,58.707713643293076,-657.1622317509039
-2210.255285953919,337.3853456583033,-269.55892175207646
-2834.617325998175,-61.2014296421306,468.1109247296478
-2053.6064813162498,-995.6539695002882,-364.75554853084395
-1576.9095460733279,-135.43462854287654,-234.92935915934598
-921.3135984255583,-421.9137014168957,1180.87216327696
-65.30313613721302,11.74917020593169,674.1802756292924
178.22497998806935,576.7688252359369,471.842066352934
-75.22426108813917,774.041084366221,675.3845604768194
-346.7412419123758,356.6008779756594,484.34480684025635
-610.5683388313033,-31.877858392009504,509.17489662626895
-824.8678192858929,-140.83504560680763,682.9406576149858
-892.0497825455177,-43.20557988711742,724.7755349686183
-778.0077804347051,-105.28365955754515,805.1862766592059
-552.1742898951222,-153.88741313292513,329.92918070900873
-827.6842754661378,98.76879464445047,218.9850764532231
-1143.8870562322509,-6.978662438243438,230.3039264172781
-1243.6254990236218,-162.43773357874505,496.2081852620416
-883.8818556795645,-435.1944853747203,596.7083560645073
-629.7869302972983,-20.007545899976037,952.329286759495
-305.7404924209593,26.914185782096848,1290.6140221176447
-97.12103521589943,528.3608571734487,872.1163700142251
-234.0452652026941,514.4366322852351,925.0569766434002
-558.5189641722709,305.0837951798015,163.45133149444513
-1002.2189024794401,159.622297114713,-50.708753753830315
-1385.7739391127452,113.83907858442996,116.3832705358099
-1407.2797540444496,90.37765189947639,500.75306042328424
-1160.2535014505463,187.36265697256454,1606.940188545528
-625.7733272830171,368.309259533072,1543.6973890166369
-273.38387726695663,620.6727067857016,657.2356513182383
-460.0459892012054,598.6274619773318,1054.8250421907585
-375.2759607001372,142.019955846288,260.937221171348
-625.8436877017127,-53.27384988757629,-593.7991057088813
-1226.3617035379057,-148.7612997302851,-119.74425517378515
-1684.7547327578736,68.46986483661597,834.1880254725112
-1663.4732553930241,696.4478185720915,985.4486496408051
-1149.189580539736,441.9123757858189,1096.0521686814561
-628.6570847333188,206.13563245348823,716.10590772588
-549.2375072017459,244.62482091234014,332.5529105250009
-577.9537354754173,113.09162660031716,309.0188800456833
-770.3782637292043,471.92976194725014,461.911050154742
-1145.9468829824661,787.3065725808508,784.8898451560932
-944.2174442852555,544.7905247969491,1098.7748109701072
-513.0477788031591,450.5371355151862,889.6972972421776
-368.0043643853916,214.35454513009034,566.922445483422
-513.5974058419542,51.50270479725493,400.45683286341415
-804.9904911463141,185.4374327624622,411.3392442883146
-999.26376489423,281.2020414718584,565.0910351649136
-932.3979136606284,208.65739064818263,731.171195056416
-830.7281283618771,257.4630480337322,654.0368015581264
-827.674078304008,227.33451280508638,748.3758470017794
-829.291348217791,120.66403919789126,501.45972375887794
-1154.6654566034274,302.38154721540997,633.3345230022486
-1290.8995426572785,283.77172632856275,596.0353433639419
-1131.1711950564159,111.07156878240787,461.6489830880067
-965.5233948392164,5.507273125889066,484.1092523950585
-779.2630510928809,-166.51659843065679,448.23359659006906
-713.1079420597249,-319.46689236385515,277.05689506610315
-839.0184211733875,-275.6894556244998,302.49575543126355
-876.7163098509685,-227.84335119536235,427.35694656177196
-965.36024024514,48.02904151774562,480.04364385391557
-1073.832552400667,122.09470104469928,446.77234325687164
-940.5107758510808,-80.15499686437265,445.5262500446126
-796.6410547944508,-174.6141648779145,393.0557325896204
-864.5133659302618,-52.98945103577675,521.1412663855649
-955.9156286805384,30.092233331463856,645.0796143433283
-977.1746722887023,56.77484156159342,581.8776034629564
-1050.5218397719916,13.830920854726132,474.9583190997946
-1066.6027644506535,100.61366521697013,215.39975424839272
-1021.9595886464798,118.16777390852127,55.10026359664106
-961.9921175936738,51.61579132527418,20.90142913227249
-846.8294473647985,-122.1762783417375,156.64982435388234
-804.3154390133227,-21.066623158774917,251.1367286484172
-804.4194500670465,247.37091667388967,415.06324789811003
-789.0156169538018,329.34590303518536,509.2085472612972
-742.9081286677919,251.71694717360162,521.9346055992618
-743.2415758694357,132.91083091575615,647.9185042802588
-708.4294840745822,-16.9415651624153,794.1560063834236
-626.1343068224114,-60.69942335048157,732.7425777406148
-748.0220054758761,136.57059240413395,620.3616933407433
-915.6052270653079,237.78660398811013,542.942799019033
-951.2371706953955,64.03032636017397,550.844579953399
-903.3472184691002,-114.55695879836644,524.6919182391541
-753.8792554032215,-173.851417150607,515.3564163093412
-549.0743526076693,-113.49441450444343,522.1456868553482
-532.8180367403752,25.62628420510572,517.995441868528
-550.0971279692862,153.71610080914482,548.7011364737194
-694.346183457144,97.46641309723505,621.2977928242572
-833.3681736372768,-21.255984459524917,635.3148118878518
-879.0789923164384,-203.2712496112332,576.3741950615145
-780.6315102506974,-355.09679656151695,558.7382031580612
-801.8721989670275,-261.7611518714342,593.4269092911444
-953.5325518908089,-82.30149949269119,625.8712200394631
-1039.3457500777536,-35.564234473546016,585.1825037092177
-1304.8900490993358,3.201246093212259,361.2946317039968
-1329.5365899670123,-97.41226616632592,337.7177731437341
-987.6369606338557,-405.41571280712583,375.27494098392424
-725.29660995345,-253.88282440996673,245.25602524817344
-800.1397011211781,257.04088552155935,203.16519912508352
-905.433557840853,556.8904773801452,326.1643884506942
-904.6677509649065,452.8111026701269,369.69811301514795
-773.5628374623343,193.07408748145394,427.48237165596817
-673.50828264494,115.02806768876222,441.0180846670372
-703.6194826979653,306.67149332340813,644.0007545899977
-614.6747360209654,453.81552313991017,735.1032207736588
-571.6406724008709,473.95593806243727,861.2676092243529
-739.9642079609246,417.6451693493701,906.032131257871
-836.2947591685235,490.77003869823034,778.754212702605
-960.4961939092352,455.74584593107744,647.499400916725
-1108.431523507008,306.8805351470686,743.9013322592324
-1082.5715203458878,109.43594397679126,752.8044745147427
-1058.261485828494,-4.431482718359481,588.7188795358253
-1032.1363564519995,15.451861746875846,671.4596727730673
-1033.3294244211836,206.37832491217696,819.9334125312927
-1009.3691525648412,306.8213916067159,823.8776748430913
-880.2669617045577,232.94907027374285,896.7037673415489
-731.9910468916502,191.66891853997035,738.1552313991017
-723.6140782020365,274.7462181274951,518.2218188678091
-837.6091733670521,272.18061213564266,563.6175452371606
-893.7934972697099,264.312481836305,500.00866758781035
-1002.1597589390874,146.30582308943423,620.4473495026335
-981.7644149633159,163.88063202010883,871.8685789744716
-863.6282522573969,234.00957513523988,598.6784477879806
-854.1673252333876,225.6703359455064,539.9795037041192
-872.634385850418,178.68079313527048,461.3685611294377
-877.8400371176702,38.34612227417111,340.10084993346356
-840.4837533714369,-104.14055768279688,447.10579045851546
-750.5998480622844,-81.33939724574653,479.77239934126334
-663.3488500150409,116.45669010314431,178.21580254215255
-776.6678733308521,384.39426307658584,187.389169594102
-954.9183462242459,444.4392325615782,255.1595091086151
-974.9690261200309,119.9910264973258,299.12457363115846
-951.0158922771794,-174.4795623378014,273.00454283572884
-903.083111969939,-224.61696909750017,332.76093263244843
-855.0116502577334,67.9930455354275,214.75529360179064
-1026.8440293066442,313.02738447889953,207.42965232775722
-1145.488010686626,164.53630954505363,370.98805402456503
-1035.9704894127965,-496.2754865320981,555.3904748308546
-715.3023713500534,-904.0375663452862,667.5337653531022
-490.27445661872304,-500.87746580126753,520.4091101446468
-535.4407468401545,272.1296263249938,391.53635543228324
-669.396786874213,829.5156857846462,301.30778604314423
-952.6403002044532,677.7207303207518,383.9190753213381
-981.9275695573923,25.683796199517676,562.2878352954374
-829.9633412021436,-457.91682174850746,267.9243166626728
-871.33730682751,-261.3746794267156,144.97815258013696
-960.4645827066328,151.53594754579802,377.72735847613615
-940.2599256626883,561.979880999118,431.5908082780562
-966.2147624316153,583.7467432813448,678.3794669943355
-777.3959507069184,200.9564938077733,870.8804739640958
-493.9148434990543,-142.5094196285174,786.0196907200727
-345.6939933616475,-152.90848556846632,619.5163486001846
-387.2362121621553,232.82466489575955,452.75807742705206
-570.0407376627085,684.645623123085,197.320185792294
-859.9277021204999,910.6473668378092,121.57260634365458
-1135.3520315296255,850.6340085554191,521.8846395048258
-1072.537512810185,408.32394344653886,869.6843468462727
-742.1209077513729,21.197044862414792,703.2564637261451
-661.3869160212714,316.89516807472484,526.8608546241582
-803.0826021118323,720.8516669810792,578.3198135958763
-903.9855608184242,949.2986901745246,509.31969632851184
-1027.4762533586904,840.2033314128679,747.239883140522
-960.456424976929,357.3391525138555,891.1585505753751
-739.8204279748946,-83.49344577404109,680.0966690969904
-756.7997226371901,48.533903014790994,718.642961663769
-774.3051908653823,189.14919977770188,851.3437310396517
-627.3865183319483,373.5118516516854,829.3749649472553
-725.5851896417229,729.0838359684501,701.1160793951045
-889.2384249463375,711.5671508619153,761.517949554639
-809.149913579051,185.51391147843557,846.9089852294106
-789.8160941809895,14.462125190559469,773.207976220218
-810.9181014923548,-8.024462991949342,835.7614475891361
-695.0202158739224,-154.59917504958372,987.1281222435797
-503.00867268639144,-205.4616000367098,1092.2180357206591
-339.8214476911076,-79.92800803536377,996.1209995258322
-362.5295080379131,147.21031137034566,849.803959558055
-523.7547990394274,488.4624209082613,795.2175309611337
-593.8623281140859,390.2708876119776,570.7953276603122
-662.1935115457369,118.73983470400188,433.3263652725447
-729.1480780898677,184.53498391397676,377.15631739686853
-893.8771139991742,329.9444764522034,484.087838354586
-809.1907022275702,303.2299511046076,599.260705745591
-678.4161767780028,209.472143902352,613.309336011788
-705.3682960032224,63.929782341574345,754.682791779048
-626.9612966711366,1.8797652613277729,807.0870276801967
-705.110307801339,243.51129080776823,502.90568134888065
-896.9872484487569,390.9551171908858,381.7950064497051
-935.465220029266,321.7520763971387,397.1509129009397
-822.5836549688222,88.46231893663995,368.2317611008857
-809.0387645118365,-49.16102848577241,565.1297843810067
-929.9454961684164,171.52646418501732,476.23296436601703
-1049.4511377483648,275.71188938118524,340.65455583711054
-955.8666823023153,154.5583864010646,287.52020312746964
-918.8754569603279,25.434373613823276,158.99721107615753
-880.0293678269339,-110.94818312063755,85.47149128397568
-784.0088103480803,-144.53559574370456,306.80201699866933
-660.5813402130187,-0.5753942477808426,504.39548673604145
-640.1747793589045,258.3094124905039,484.2051057190784
-728.7779211045566,340.0998302172506,466.90358073348193
-786.1787664492973,211.21177976169233,282.0218933070927
-885.9488204432708,52.756241937868694,214.34332825174755
-1065.6442312104543,120.1623388211061,238.8960552278301
-1176.4567920747659,93.23051194852474,158.83507619829402
-1100.3349767759632,-100.69819969102599,172.40342012817837
-978.614511581427,-301.87066939270807,280.8696139864276
-870.6367617891941,-252.4786751846961,274.4708947499911
-883.3301892083433,57.27480842081649,288.93454951487007
-861.6102338719136,115.66946918672535,347.932270449134
-701.6228783529544,276.15444621761765,263.44572305527373
-812.6016529599813,437.54085238078244,473.1687171460183
-876.36756690613,15.544146064150347,387.29535570250806
-871.2832618682222,-157.96219911998492,458.60003161120267
-867.40630082648,19.661250274048736,422.7376321169819
-795.7569608377989,228.24206023463674,446.65507589237916
-720.3448680232292,295.74931296620156,274.87368265411743
-849.0524287090902,263.5793058791739,457.5109746957422
-918.8734175279021,24.562210336863256,492.59329128703484
-960.1066623158777,-29.883803337531166,425.4408997975864
-1054.4069585434374,130.70416503087193,560.8479960027125
-1071.0385299771074,255.09730641962346,611.1995431671367
-973.671947097123,252.6173565896611,420.3596539083174
-958.6617244420879,20.683209862695215,456.68806371186906
-963.4003456837963,-189.92112495092618,696.7302799630863
-1022.4286581044497,-15.997613864061632,624.6159493812874
-1066.5415814778748,68.86011023132262,556.9506406367109
-1050.735980176717,79.42824511938328,455.11158244660515
-1043.0779114172528,47.46564831007531,349.36905059322
-904.8390632886869,33.81358567910551,673.3043394023443
-737.9778007780436,87.88883053846115,809.058139119883
-625.1033737310906,202.16893638500406,708.3234335884324
-572.1382939128041,294.19118659277126,661.7111857769983
-559.7263081684368,370.5567140664753,559.5988436418146
-650.8838390275987,412.09179485349233,365.7875013383776
-873.4348630776055,245.12856072155122,535.7007744744639
-889.8359786471426,72.2106937639255,653.7767739238171
-910.7942059724779,122.13956855807031,594.4252114636497
-942.350343899293,224.59759448945363,774.1389771226668
-875.125552558723,351.96524807146176,798.2644430055116
-857.6302814926606,312.7530808176085,755.4873478710876
-760.3921828555115,207.96398362335762,804.392937445509
-672.5895183370469,154.87449842708776,570.4098749318066
-808.6267991617934,216.41743102894466,411.1801685590901
-924.8734277250643,176.6607353173612,621.5027557830656
-904.4678865871629,131.45059729877178,775.0210316468928
-835.1302432533028,11.189855863113296,800.0132563107687
-783.9425287942366,-85.4703695961414,852.1258533750059
-730.1433211137341,35.66355483269007,601.3470451173439
-809.2345500247283,194.08972482957995,509.3615046932439
-807.489815584323,209.9748639953501,556.4295656518792
-847.8787353479528,102.5467412419124,191.19780964957457
-1167.7790071023235,121.44514181703234,292.30675103118807
-1241.9939530828572,108.30507869659876,487.47023703303375
-1069.2030407937473,71.05729275542618,368.52136050537143
-1030.963682807075,23.347626355585245,259.36583848714906
-971.8680691163651,-12.528437335889423,193.6532862904254
-909.7143265029345,13.157398296054211,92.45736311584487
-960.0189667215615,92.72269327446172,291.59091024967756
-853.3393156684496,143.78202546231387,469.62520330592
-730.6409426256673,237.23085865203714,212.12238633988164
-839.1061167677037,422.2960949967624,45.03933555291563
-982.2304252726467,442.57009274318966,23.203948341176655
-1068.285296202067,377.2511510046754,-1.4124497152442477
-1244.2781173999276,339.3207670305354,-70.63931107972653
-1327.517551865316,396.4207960924475,183.02172505391752
-1245.2570449643865,483.08749674965463,427.28760585928944
-1012.6087909734723,344.5039845411022,278.1796026165918
-823.1343017238304,224.3630597604687,-8.998393946964562
-892.6891446110548,294.3655580651905,-29.899506967211025
-931.9716722836035,160.42889263917854,531.1844513671846
-672.9260246873296,-344.3918157576747,552.465928732034
-490.46718298297594,-431.41133822457215,500.54809746447563
-561.5414030275375,-63.30428841653369,929.9505947494813
-593.3830614939862,275.6537655570455,1163.8021138717097
-604.1155746355789,174.54584389164498,1097.2656309748998
-665.8665293448834,-134.0784059796159,712.7724554256552
-842.3049665278154,17.98667230909638,258.28493930139246
-1132.0277566753173,493.1857464067751,358.30686319997153
-1285.76017294387,880.6666904600452,287.97805570709676
-1304.002895994045,748.7704771762019,233.2050190432003
-1010.9925407759023,-292.18132593699175,900.4420469783261
-717.4121641947047,-791.5751046483764,694.5949942131106
-681.7659445376353,-511.67524078049087,443.00857071477014
-738.9404128830947,-22.47872617050675,581.7888881524273
-751.5665390321875,593.3789826291344,646.2400513936972
-716.6218841296468,617.3443530665417,760.4972136254481
-539.8795715152473,84.77257779160061,635.4290201037052
-541.7619676444046,11.796892924699058,262.8073807059495
-1058.1391198829367,710.9226902153132,111.42744974073716
-1106.3003166218843,734.0947214390236,495.24149429213855
-818.5669928059023,492.9767045831146,178.54517087894442
-903.8897074944043,436.4385391545534,-160.05873565386753
-1160.0189667215616,302.9077207813066,256.4892190503383
-1095.7258594933032,488.5878460024576,739.5542820433075
-899.9240311421333,603.742358501629,808.8174860936202
-618.2784131176295,256.9511504948173,782.8086043654052
-536.5420403501706,353.9506355381298,454.03782127433936
-765.5550060418186,558.9737576032591,249.760111760897
-831.4684423324989,442.648610891589,594.5322816660124
-654.6639270291079,409.27431895703427,479.5541800716861
-692.6045081653776,191.4619161487358,318.81121483891036
-636.9422789637645,-43.1046279820326,528.441414754274
-622.4255989558106,364.0437866141853,641.0986422478625
-737.4608046580638,657.7108390734859,928.807492874733
-605.6767601576482,533.3105596712436,978.2963601229778
-704.4169007765139,599.9765465271015,560.5828697873383
-841.0496958696397,59.90985708677276,619.2277689119119
-709.26769080165,32.05651267252324,648.7679278856695
-823.5992923169483,485.11061371620286,590.5819010569359
-763.3473204407214,316.3516593332076,807.9078992316439
-711.5253424971831,265.1975955091698,757.8367740257887
-717.9587320848609,143.86462247556506,597.2406479276818
-684.6731554608353,-10.23336205534,700.2982669922961
-602.5176793298426,119.7595509169798,599.0506442057176
-746.4026961296672,432.3504968567248,383.91091759163425
-873.0626666598688,284.8373297711247,649.3858759107341
-722.1395685580703,174.7069590532955,581.3748833699582
-835.0925137534225,275.678238746157,524.3972202536035
-753.6467601066623,154.59305675230587,898.8655657130621
-368.2909046412384,69.52312971300088,810.7335328578058
-542.7215206008169,358.2548576731096,497.10145666461034
-918.283001840588,515.1718476747922,408.52992612156044
-1220.5289267996718,538.2510847231216,129.20110333294247
-1449.5163995859955,346.502628318539,118.5685223802216
-1028.3532093018514,-213.44393855190106,605.5696899552855
-491.88356880280224,-382.4343685152422,782.9350491758145
-238.8919763629782,58.38854246863099,545.8347141990384
-222.0483039570088,288.3492324086207,317.68340870735676
-439.5119638204688,460.3937124298308,-102.16332794583269
-943.8972533943805,555.2130442097964,105.81493170450665
-1277.2251482412446,398.07681522232366,411.3973681124544
-1343.5882793818482,96.142923424411,336.8540735113418
-1350.155251793426,-50.26181213768209,400.0438477971581
-1055.9773215114235,-175.77562164449637,467.6673481770024
-813.44699770054,-82.15863725125298,333.6225928324148
-806.2376040747861,215.02347896580383,258.16053392340916
-973.1019257340683,296.11437137044766,94.47793079186064
-1144.2847455553122,214.91946791208008,-49.09862185353817
-1196.4636241733926,46.8519830931052,146.91765281722098
-1005.4381465638114,-119.1181494190167,358.3435729836387
-777.4663111256139,-122.7126490697639,157.6909546073328
-786.096169436046,69.21446161533245,-19.694085136106622
-877.2751143356805,274.93690505932204,-25.67849367521019
-896.6894913145671,376.45475264233966,60.02987768504026
-912.1647045627203,354.38299521243243,173.68622312410457
-878.9423503438993,197.40380252175822,386.64375704241513
-748.957085243177,-8.54749583190998,401.05846542907113
-703.3258044286275,-11.050562628420511,162.34901826821599
-809.2478063354969,200.69034787618608,-47.956743638245484
-996.8144065506572,283.56268450490234,-31.422759046157456
-1215.2977826270949,147.51928538287794,138.44687023601332
-1169.512524664386,-88.40684637465395,618.7321868324046
-843.2533026058849,-195.5285444060918,608.2821350818068
-645.6404582604662,-60.734399616586714,281.1194444586072
-694.38595238945,80.88868267961028,67.98193062870604
-978.4248443658131,164.47104770742305,79.14384626758374
-1289.0130676632696,-8.387135260257072,377.270525612722
-1365.1858687727208,-280.76560293270387,569.3544686513743
-1211.8715361514892,-470.39916791157026,697.8784804188995
-957.4880310809502,-445.3161885047392,697.6796357573688
-773.8718114748666,-168.02985729071602,715.1932617152647
-615.4303457347821,75.15940713699378,791.3140572978541
-602.8460279504214,150.57231572453387,583.2430034721338
-665.9990924525706,73.43455716274161,555.0855796831743
-709.2778879637798,37.78487047054805,425.04423019073795
-897.8876578648163,36.43007550998558,539.9631882447115
-922.987972447268,-0.5141562103266661,712.3951604268533
-1087.6191156001287,88.86112994753562,611.5115763283079
-1333.3605257656795,-55.76705602830733,663.2631938531507
-1387.0485843789675,-242.64759117537594,486.48111230644514
-1299.6894964131484,-367.23447864459325,476.43690760861256
-1020.7257320287765,-472.1479812168274,1101.0589752871779
-592.891558279331,-266.88216669300937,1067.5307062044633
-527.4563688925373,155.41086915511414,757.03935594724
-645.8790718543031,226.10677448466097,770.7259869578297
-742.8500048436521,66.36058185007113,561.8075489591248
-806.749501613701,-51.57612436458935,298.29860349864634
-828.3175192343972,-4.665120097076984,333.1382276312503
-808.6349568914972,201.9639734261955,525.0427006164185
-919.4495571882345,232.96028715208558,433.0122926789475
-1008.5982471078299,256.6860242794431,411.97350777278683
-990.2851636389594,236.9881661933484,388.7668061978352
-1005.6461686712588,341.3918106590936,368.56112943767755
-963.5196524807147,277.339356457098,597.0367046850863
-895.6249075882183,48.58346122274172,602.7491549101885
-946.3466117379535,37.22728964529172,586.3296844488179
-975.9061453197577,186.4051434485783,369.52985984000657
-1076.92229252599,322.1395685580703,316.5382674001826
-1139.1249815176436,308.02567645424284,413.76922802384104
-1164.159014546252,22.939943813636667,528.1701702416218
-1219.2848730198389,-79.34197712776535,292.2129371395941
-1185.9911386661092,-69.36731707565785,139.617504448512
-1143.275226504464,-81.19826852187038,152.0712985576114
-1123.5743092697303,135.02776177389833,120.23983725329242
-1093.09499166382,156.00536370728028,328.63006225367485
-1054.75366205585,152.79223792018684,435.1802093477386
-909.3778201526516,53.85376249789684,316.0284092936936
-783.048237675455,-33.29597772939791,200.47620747146073
-723.1399101630018,27.580264412414028,138.37447038489188
-711.2418613899753,48.87795526504974,366.10871194546564
-662.8155384356535,-105.40704521931548,461.5449720342829
-705.5661209485402,-246.19212473168722,257.29989343965576
-905.1725104903305,-295.65142020975566,175.9846634681568
-1075.2907465852254,-188.22023830767898,357.5308591618953
-1013.4633131599477,2.5726420337220155,546.1946740222197
-839.1866743485289,67.10456679905982,560.361591369122
-783.4112566472752,-20.80496397852478,298.54435510597403
-978.4136274874704,-14.170282410405186,5.178863322337394
-1152.4832639076546,-4.277322021281478,92.80437254312126
-1113.0406407896685,98.0552992102298,320.67831522487296
-971.7161314006313,131.39655233948392,279.51135199074105
-872.5364930939721,219.1930985606706,233.60576751490063
-826.4952863618056,235.23017544217447,336.2809929996482
-815.2549545461499,280.4066628257356,206.78519168115517
-915.454309065787,363.273900873387,299.19493404985394
-967.1824731177313,228.08502393783812,279.2533637888576
-1114.3254832180205,114.17558493471269,391.2477757440105
-1137.5036327390087,-48.73070824389573,756.439762814009
-968.6080363834745,-138.0328654535443,869.1602127128021
-799.4850433124462,-70.93237751933638,734.1049186011534
-737.314985239608,117.95363350379591,710.8513100804047
-556.8863985152933,117.25614761411902,360.34119704486244
-687.4875722086545,152.1335012466031,252.30226427985096
-893.1266028664224,81.97437453156788,445.68940463868915
-896.8047192466338,2.9410451071466817,689.2272080679948
-768.6090560996876,226.20772638974577,674.6962520330593
-675.2499579367063,460.293780240959,541.8680181305543
-864.3440930389073,558.2303844839983,511.23268394405846
-978.933682756089,296.76800946296646,592.8150795633576
-920.3479271718682,239.5864031040162,739.0964294636804
-585.7933137207916,15.697817297446122,658.5215134628033
-402.2352179388477,344.04715167768813,330.49512320721146
-586.512213650941,494.39309040294097,539.157612436459
-508.8322719787084,304.5943313975721,152.42412036730178
-619.082969209669,171.53972049578604,-111.72826602356565
-777.0869766943861,65.74355156959818,463.1805968398995
-615.9911896519199,312.4634814131228,504.0079945751098
-971.8884634406246,647.9756083881856,501.46992092100777
-1046.3410032987822,330.5573258962031,419.0085299261216
-1117.5171949646415,235.96131196687963,163.1607123737464
-1229.3698663661903,143.2395364370096,511.0889039580285
-793.2290843458267,206.70157495169096,635.1465587127103
-593.4717768045153,362.3388211060862,476.7050929726258
-401.5958558733105,272.82405306603175,585.8453192476535
-509.39719476069814,545.0107834989524,642.181580866045
-892.452570449644,544.698750337781,703.1636695507641
-802.3545247357662,237.30019935451966,587.8113321062749
-817.4962907822753,276.1065195556077,587.4534117155197
-885.8356319436302,105.105209220274,873.5042037800881
