acc_x[mg],acc_y[mg],acc_z[mg]
-884.0807003410952,324.55425655040204,323.34385340559726
-883.5626845049023,340.1314414198529,335.0726292872694
-880.6911636491566,335.9934330275885,307.6575589013578
-868.9939989700867,316.6290221431376,315.7469676189117
-868.884889335298,332.1042353912906,315.6959818082628
-893.0144340829947,324.3064655106484,287.88934039656766
-876.701014107774,316.68918539970326,315.63173968684515
-875.8832017049656,336.2034945674619,335.2011135301046
-888.2615368143047,316.77790071023236,315.45736821442597
-880.4178797040785,316.75240780490793,319.4995232826705
-888.206472138804,305.20616112535885,319.42202485048415
-887.9617402476891,320.7150250085402,323.29796617601323
-880.4454120418288,312.8846242090827,319.5127795934392
-881.2632244446371,331.98798774301116,291.9631066674145
-888.1248948417657,336.1219172704237,315.39414580922136
-888.3431141113429,324.4818566992806,311.50596788913646
-891.7601831410319,328.482203402793,323.21536916276204
-899.3856209816809,320.8384106703105,327.051541555985
-903.8662540215058,328.43529645699607,307.33532857805676
-876.510327175947,324.46044265880806,319.53215420148575
-876.5919044729852,332.16337893164336,315.5807538761963
-864.8131624968771,324.4053779833073,323.63243309387
-864.7591175375894,332.1429846073838,323.6069401885456
-872.9025712144311,328.2313532144005,311.7241871587138
-880.3903473663281,320.6212111169462,319.48728668811475
-876.701014107774,316.68918539970326,315.63173968684515
-872.8475065389304,316.659613629527,315.68884379477197
-876.7550590670617,308.9515787756268,315.65621287595667
-873.1207904840085,335.90063885220746,303.8458596972463
-880.854318243233,312.7816328715719,307.73301790111816
-888.1248948417657,316.8125710614736,319.38429535060396
-884.0807003410952,324.55425655040204,323.34385340559726
-891.6245608847059,347.82621996298434,323.1521467575574
-884.0266553818074,332.2918631744786,323.3183605002728
-895.777865020165,324.6093212259029,319.24357451321305
-892.1150443831482,336.1178384055718,311.41011456511654
-884.5171388802496,339.89282782601606,307.58617876644934
-884.3804969077107,339.9264784610443,311.51310590262733
-880.8267859054826,316.65043618361017,307.72078130656246
-884.4896065424994,324.45126521289126,311.56409171327624
-869.5120148062795,320.3611834826368,300.0280421958569
-872.6568196071036,324.4308708886317,319.59027802562554
-877.0283430121398,308.8832577893573,307.80337831981365
-869.5660597655674,312.6235768585603,300.05353510118135
-887.9882528692266,316.8462216965019,323.31122248678196
-884.2989196106724,312.914195979259,319.45465576929945
-884.2989196106724,312.914195979259,319.45465576929945
-876.5919044729852,312.8540327226933,319.5709034175789
-884.5171388802496,320.583481617066,311.57632830783194
-888.0433175447273,328.4189809975884,319.3465658507238
-880.6095863521183,328.2904967547532,311.60895922664724
-876.7285464455243,332.1297282966151,311.6538267400183
-884.3804969077107,320.6171322520943,315.50325544401
-896.0776615867806,320.6721969275951,311.4029765516257
-872.5211973507774,343.77488744882305,319.52705562042087
-877.4647815512944,324.2208093487583,292.0467233968787
-880.9909602157721,332.05630872928066,299.81696093977047
-888.806065272035,316.6412587376933,299.7516991021399
-887.9066755721884,328.4526316326167,323.2724732706888
-884.2713872729221,316.7829992912973,319.4424191747437
-876.3471725818706,347.67326253103766,319.4566952017254
-903.4838604416393,324.66846476625557,319.12732686493354
-880.5545216766175,336.0281033788297,311.5834663213228
-869.1031086048754,339.77352102909765,307.81765434679534
-876.4827948381966,328.32924597084633,319.51991760693005
-892.4148409497637,332.18071410726395,303.5695166035293
-895.8594423172033,332.3122574987381,315.29115447171057
-888.5888657186705,328.2813193088364,303.63987702222477
-887.743520978112,332.3561052958962,327.1871638123111
-891.6510735062433,324.648070441996,327.15453289349574
-896.377458153396,316.73507262928734,303.5623785900384
-896.0501292490301,324.5410002396333,311.39073995706997
-876.4552625004463,332.19804928288465,319.5076810123743
-880.4454120418288,332.1939704180327,315.52263005205657
-895.9950645735292,312.9692606547598,315.3543768769152
-869.4029051714909,335.83639673078983,299.977056385208
-872.2744260272368,320.66505891410424,331.38227631250226
-876.3461528656576,328.36391632208756,323.44684474310804
-868.6401574441834,328.3037530655219,323.56207267517453
-887.743520978112,332.3561052958962,327.1871638123111
-899.8220595208354,336.17698194592447,311.29488663305006
-883.6167294641901,332.39485451198937,335.09812219259385
-872.2214007841619,347.7120117471308,327.36765358200813
-891.8692927758206,332.317356079803,319.2762054320283
-884.1082326788455,339.9947994473139,319.36594045877035
-888.2890691520552,332.2184436071442,311.48047498381203
-891.9508700728588,320.7109461436882,319.31393493190853
-876.510327175947,343.76978886775817,315.5430243763161
-872.2754457434497,339.9744051230543,327.3931464873326
-888.9977719200748,328.1793476875386,291.8601153299037
-885.0076223786921,328.1834265523905,295.84516629022147
-887.743520978112,332.3561052958962,327.1871638123111
-884.0266553818074,332.2918631744786,323.3183605002728
-876.3736852034081,324.49511301004935,323.45908133766375
-877.2465622817172,335.8618896361143,295.93490131696353
-868.5850927686827,336.04135968959844,323.5365797698501
-872.6027746478155,332.16847751270825,319.56478512030105
-876.1279335960803,320.6946306842806,331.3251722045755
-877.0823879714277,320.4549973742308,303.8387216837554
-887.9066755721884,309.1432854236666,327.26262281207147
-864.6500079028007,328.3088516465868,327.54610391927935
-884.1898099758838,328.3883895111991,319.4046896748635
-884.1898099758838,328.3883895111991,319.4046896748635
-876.2645755686194,339.9693065419894,323.40809552701484
-896.1041742083179,316.80339361555684,311.41521314618143
-876.2921079063697,336.10050322995113,323.42135183778356
-884.2438549351716,320.6518026033355,319.429162863975
-892.2241540179368,320.6426251574187,311.46110037576545
-872.8475065389304,335.96895983847696,311.69971396960227
-884.2713872729221,336.0923455002473,315.4522696333611
-876.7825914048121,324.39212167253856,311.67931964534273
-879.8723315301353,336.19941570261,331.21606256978686
-876.7825914048121,324.39212167253856,311.67931964534273
-892.0059347483597,312.9733395196117,319.33942783723296
-892.3332636527256,324.47675811821574,307.52193664503176
-892.2506666394744,316.77382184538044,311.4733369703212
-884.4896065424994,305.14191900394127,315.5532215384459
-872.6027746478155,332.16847751270825,319.56478512030105
-896.0501292490301,324.5410002396333,311.39073995706997
-885.062687054193,320.445819928314,295.8706591955459
-884.0807003410952,324.55425655040204,323.34385340559726
-880.0905507997124,324.55833541525396,327.327884649702
-887.9066755721884,328.4526316326167,323.2724732706888
-884.1082326788455,320.6854532383638,323.356090000153
-887.9892725854395,336.15556790545196,319.32107294539935
-884.5446712180001,336.0240245139778,307.59943507721806
-895.722800344664,332.3469278499794,319.21808160788856
-877.0823879714277,320.4549973742308,303.8387216837554
-881.0725375128104,320.4509185093789,299.8546904396507
-888.2615368143047,336.0872469191824,311.4682383892563
-888.3155817735925,328.3506600113189,311.49373129458075
-904.1109859126207,312.92541285760177,303.4593872525276
-887.6068790055729,332.3897559309245,331.1130712322761
-891.7601831410319,328.482203402793,323.21536916276204
-891.8152478165329,320.7456164949295,323.24086206808647
-880.6636313114061,320.55289013067664,311.6344521319717
-880.7176762706939,312.81528350660017,311.65994503729615
-884.4355615832114,332.1888718369678,311.53859880795176
-884.5171388802496,320.583481617066,311.57632830783194
-891.9508700728588,320.7109461436882,319.31393493190853
-876.5919044729852,332.16337893164336,315.5807538761963
-883.862481071518,336.1943171215451,327.2320313256821
-884.8169354468653,316.6463573187582,303.7357303462447
-899.7945271830849,320.7364390490127,315.27177986366394
-888.3431141113429,324.4818566992806,311.50596788913646
-877.0283430121398,328.1926039983073,303.813228778431
-872.8475065389304,335.96895983847696,311.69971396960227
-877.0283430121398,328.1926039983073,303.813228778431
-865.6044622781482,328.069218336537,300.0606731146722
-865.1129590634928,320.4682536849995,315.7918351322827
-880.4454120418288,332.1939704180327,315.52263005205657
-875.5283404628493,328.56887928089617,347.0053484115371
-883.862481071518,336.1943171215451,327.2320313256821
-888.1248948417657,336.1219172704237,315.39414580922136
-880.4454120418288,332.1939704180327,315.52263005205657
-876.7825914048121,324.39212167253856,311.67931964534273
-871.9746294606211,324.60218321241206,339.2228742740895
-869.5935921033176,328.0641197554721,296.07664187056747
-888.1248948417657,316.8125710614736,319.38429535060396
-888.4246914083811,332.18479297211593,307.554567563847
-883.7809037744797,328.49138084870987,331.18343165097156
-884.4355615832114,332.1888718369678,311.53859880795176
-887.4702370330339,332.4244262821657,335.0399983684541
-896.1317065460684,332.2439365124686,307.43831991556755
-892.1690893424361,328.38023178149524,311.43560747044097
-876.4827948381966,328.32924597084633,319.51991760693005
-876.5368397974845,320.59163934676985,319.5454105122545
-876.4012175411583,320.6263096980111,323.4713179322195
-888.5338010431698,316.70957972396286,307.60453365828295
-891.6245608847059,328.5168737540343,327.1412765827271
-876.510327175947,324.46044265880806,319.53215420148575
-860.387594132553,328.3812514977082,339.3839894357401
-861.0962969005727,324.34113586188965,319.76362978183175
-880.0905507997124,324.55833541525396,327.327884649702
-880.2812377315394,316.78707815614916,323.4264504188485
-873.1473031055458,332.0318355401692,303.859116008015
-876.046356299042,332.3010406203954,331.28642298848234
-879.927396205636,328.46180907853346,331.24155547511134
-887.743520978112,332.3561052958962,327.1871638123111
-892.496418246802,320.5743041711492,303.60724610340947
-883.7809037744797,328.49138084870987,331.18343165097156
-876.6734817700235,320.5579887117416,315.6184833760765
-872.765929241892,328.26500384942875,315.6511142948917
-868.749267078972,332.1389057425319,319.6229089444408
-888.0973625040153,320.6813743735119,319.3720587560482
-872.4386003375262,316.76158525082474,327.468605487093
-853.2536595065593,343.62600888172824,319.8166550249066
-870.0850953179731,354.97443061595965,276.35533031157433
-880.2271927722516,324.5246847802257,323.400957513524
-876.7815716885992,285.7734292546385,319.65859901189503
-880.5259696226541,262.6595218550678,327.52978845987167
-896.2948611401448,289.72279014750194,311.5039284567105
-880.7727409461947,324.3880428076867,307.695288401238
-872.9025712144311,366.8500456323006,303.7449077921615
-884.2448746513847,359.2704950212356,311.4498834974227
-884.2989196106724,332.2235421882091,315.46552594412975
-899.7659751291216,285.98654994315086,323.23882263566054
-896.0215771950667,289.79111113377155,319.35676301285355
-888.0973625040153,320.6813743735119,319.3720587560482
-891.7336705194946,332.3510067148313,323.2021128519933
-895.4505361157992,332.4152488362489,327.0709161640316
-895.6687553853764,340.08453447405594,319.1925887025641
-868.749267078972,332.1389057425319,319.6229089444408
-877.0283430121398,308.8832577893573,307.80337831981365
-880.2537053937889,301.3465352592374,327.4033436494624
-896.2397964646441,278.1500308464155,315.4685850927687
-903.2381088343114,301.5596559477498,330.9835672732279
-887.6068790055729,313.0804097219744,335.10322077365873
-887.4977693707841,328.55562297012744,335.0522349630098
-892.3322439365126,305.1674119092657,311.51106647020134
-876.2645755686194,320.65996033303935,327.3982450683975
-883.8074163960171,324.6225775366716,331.1966879617403
-891.3788092773783,324.7163914282655,335.0073674496388
-898.8125404699873,324.84487567110074,342.74497407371535
-895.9410196142414,320.70686727883634,315.3299036878037
-884.1622776381333,332.25719282323735,319.3914333640948
-891.896825113571,328.44855276776474,319.28844202658405
-872.6843519448538,320.56206757659345,319.60251462018124
-888.0698301662649,305.24083147660014,323.34895198666214
-895.8594423172033,313.00291128978813,319.2813040130932
-875.9647790020039,343.9064308402972,331.24869348860216
-884.0256356655945,312.98251696552853,327.3074903254425
-876.4552625004463,332.19804928288465,319.5076810123743
-876.4012175411583,320.6263096980111,323.4713179322195
-875.9107340427161,332.33469125542365,335.21335012466034
-880.254725110002,320.65588146818743,323.41421382429274
-876.3461528656576,309.0545701131376,327.4359745682777
-868.3118088236046,316.8003344669179,335.37956386737574
-872.0837390954099,328.43631617320904,335.2837105433558
-887.8250982751501,320.7496953597814,327.2248933121912
-875.9372466642534,328.46588794338544,335.2255867192161
-879.8447991923849,320.7588728056982,335.19397551661376
-887.9342079099388,324.5838283205784,323.28572958145753
-891.2696996425897,320.88225846746855,338.9465311803725
-875.58340513835,340.14061886576974,343.0417114916919
-871.5932555969674,340.1446977306216,347.0257427357967
-872.6843519448538,320.56206757659345,319.60251462018124
-895.5871780883381,332.3805784850077,323.14500874406656
-879.7907542330971,328.49545971356173,335.16848261128933
-868.4484507961436,316.7666838318896,331.45263673119774
-872.0296941361221,316.8645765883355,339.248367179414
-880.0089735026743,316.8553991424187,331.2792849749915
-872.5201776345643,305.15517531470994,327.5063349869732
-879.4093803694433,324.72964773903425,346.96048089816605
-879.6265799228075,313.08958716789124,343.07230297808127
-880.5269893388672,320.58756048191793,315.56035955193676
-891.5960088307426,313.0763308571225,331.119189529554
-872.5201776345643,324.46554123987295,323.51720516180353
-872.6017549316026,312.8591313037582,323.5549346616837
-880.0630184619622,309.1177925183422,331.30477788031595
-876.3186205279072,312.9223537089628,327.4237379737219
-876.8366363641,316.65451504846203,311.70481255066716
-876.0738886367925,328.4322373083571,331.29967929925107
-871.8114748665447,328.50463715947853,343.13654509949885
-875.9372466642534,328.46588794338544,335.2255867192161
-880.0905507997124,324.55833541525396,327.327884649702
-883.7798840582666,309.18203463975976,335.1735811923542
-864.1034400126446,309.1361474101758,347.241922572948
-883.2353556005365,328.62802282124886,346.89012047947057
-880.0905507997124,324.55833541525396,327.327884649702
-879.7632218953466,313.05491681664995,339.1453758419033
-887.3335950604948,313.14873070824393,342.95605532980176
-879.5725349635197,301.51784758301767,347.0359398979264
-910.7809496617093,286.21190722621895,338.77113999174037
-883.6983067612284,301.4790983669245,339.12600123385664
-887.4151723575329,301.5423207721292,342.99378482968194
-895.0130778604315,297.7673313516849,346.8177206283492
-890.9413510220106,309.37883986886453,350.7640223725738
-898.6758984974483,305.569180097179,350.661031035063
-898.921650104776,309.3696624229477,342.7959598843642
-894.9590329011437,324.8142841847114,342.803097897855
-911.0817659445377,320.8934753458113,322.95126266360074
-895.4219840618358,297.665359730387,335.03795893602813
-895.4219840618358,297.665359730387,335.03795893602813
-903.2381088343114,301.5596559477498,330.9835672732279
-895.7493129662016,289.85943212004105,327.21061728520954
-895.6677356691633,282.15649584720575,331.16201761049905
-895.7493129662016,270.55008591109095,331.19974711037923
-906.5736005669622,278.54772016947686,350.6345184135256
-894.4399973487378,263.1540842183621,370.4904325126318
-895.967532235779,278.219371548898,323.32141964891173
-891.4318345204531,278.3600923862889,343.01213972151555
-880.0630184619622,289.80844630939214,335.2949274216986
-892.1956019639734,285.8927360515569,319.428143147762
-888.2329847603413,282.02801160437053,323.4244109864225
-895.8033579254894,262.81247928701447,331.22524001570366
-899.2754916306793,278.3855852916134,338.969984653271
-903.1555118210604,274.54635374975146,338.9251171399
-891.8958053973581,270.5205141409146,331.25787093451896
-899.1388496581402,259.1098897176916,346.8860416146187
-899.6028205350451,270.57965768126735,331.1426430024524
-888.3971590706307,278.125557657304,319.51074016101325
-880.6891242167305,258.75604819178824,323.61611763446234
-888.0412781123015,251.1805764455752,335.30512458382833
-876.7265070130983,254.89234346081489,327.6134051893359
-872.955596457506,262.5657079634738,323.7191089719731
-860.8770579147824,258.7448313134455,339.61138615123417
-865.4392682516457,254.7342874478033,319.9339223893991
-861.1228095221101,281.8536401319513,327.7561654591527
-845.6812469089854,266.2948101543341,331.96453427011267
-872.491625580601,270.4052862088481,335.4733777589697
-868.2016794726029,274.3475090882208,347.2980069646618
-868.6381180117575,270.3757144386717,335.53150158310945
-865.1670040227805,274.1119546430229,323.79660740415943
-876.5908847567723,274.2353403047932,327.5501827841312
-880.4719246633663,289.7064746880943,323.51516572937754
-876.8641687018504,293.4763655274737,315.7071986866055
-891.6775861277807,282.16057471205767,335.1460488546038
-883.998103327844,297.54197406861675,331.2854032722694
-903.2931735098124,293.82204932367324,331.0090601785524
-891.5144315337043,286.0630286591242,339.0607393962261
-895.0671228197193,290.03074444382133,346.84321353367363
-910.83601433721,297.7846665273055,334.80648335568213
-914.8526765001302,293.91076463420234,330.83468870613314
-899.0572723611019,309.3349920717065,338.8690327481862
-911.0001886474994,293.881192864026,330.89281253027286
-888.0973625040153,301.3720281645618,323.3611885812179
-907.5005226045593,282.1768901714653,323.13583129814975
-876.699994391561,297.3798391907533,319.62086951201485
-891.7051184655312,297.60111760896945,331.1691556239899
-876.6184170945228,308.98522941065505,319.58314001213466
-884.2978998944595,293.604849770309,323.44480531068206
-879.5725349635197,301.51784758301767,347.0359398979264
-872.6017549316026,293.54978509480816,327.5450842030663
-873.0106611330068,293.44679375729737,315.7653225107453
-868.5300280931817,285.85092768682483,335.4805157724606
-872.9831287952564,278.0062508603856,319.74221574135925
-861.2594514946492,281.81998949692303,323.82923832297473
-868.2567441481036,266.6099024641442,347.3234998699862
-872.4100482835628,282.0116961449629,335.43564825908953
-884.0521482871318,270.4950212355902,335.3000260027635
-880.1711083805378,274.3342527774521,335.3448935161345
-887.1153757909176,286.17009886148685,354.82453233265187
-875.9912916235413,282.10958890140876,343.2313787073058
-880.3077503530769,274.2995824262108,331.4189860961695
-868.3107891073914,278.1816420490178,343.35884323392804
-872.8464868227173,278.03990149541386,323.6681231613243
-891.9508700728588,282.0922537257881,327.2932142984608
-903.6194826979653,266.70677550437716,327.1708483529034
-884.0521482871318,289.8043674445402,331.30987646138084
-903.4563281038888,289.91857566039374,327.0943696369301
-907.0916164031552,282.2798815089761,334.9155929904708
-918.6521391096859,282.36859681950517,334.74224123426455
-915.4257570118236,270.595973140675,319.13140572978546
-899.6303528727956,286.02020057817913,327.16473005562557
-906.6551778640005,286.25065644231216,346.6820983720231
-907.0365517276543,290.01646841683964,334.89010008514634
-903.3196861313497,289.953246011635,331.0212967731081
-903.3472184691002,286.08444269959676,331.03353336766384
-888.0698301662649,285.93148526765003,327.3391015280448
-895.7768453039521,285.9906288080027,327.2228538797653
-884.3794771914978,281.9984398341942,323.4825348105623
-907.0090193899039,274.57592551992786,338.8669933157603
-903.4838604416393,286.0497723483555,327.1076259476988
-903.1555118210604,274.54635374975146,338.9251171399
-883.7248193827659,278.3009488459362,343.128387369795
-910.5627303921319,278.54364130462494,346.6494674532078
-887.7690138834363,270.5592633570078,339.1688293148017
-903.3461987528872,266.77509649064666,335.02368290904644
-903.2105764965611,266.8087471256749,338.95061004522444
-899.1928946174281,270.68264901877814,342.9224046947735
-903.4828407254262,266.74042613940543,331.09675577286845
-899.7659751291216,266.67720373420076,327.2279524608302
-880.3617953123646,266.56197580213427,331.44447900149396
-872.3009386487741,278.1775631841659,339.37481198982323
-891.8407407218572,278.25710104877817,331.2323780291945
-880.3628150285776,285.8713220110844,327.4543294601113
-876.7815716885992,285.7734292546385,319.65859901189503
-895.2312971300089,286.12727078054183,342.9295427082643
-887.6333916271103,289.9022602009861,339.1056069095971
-884.0246159493814,274.3638245476284,335.28778940820774
-876.4817751219837,270.4012073439962,331.48934651486496
-872.5191579183514,285.8458291057599,331.4964845283558
-903.0739345240221,266.8434174769162,342.87651746518947
-906.9274420928656,266.87298924709256,342.8194133572627
-895.4770487373365,289.92775310631055,335.06345184135256
-903.264621455849,278.38150642676146,334.98595340916626
-911.026701269037,290.0123895519877,330.9060688410416
-903.7836570082546,282.1126480500477,319.2670279861115
-907.3638806320201,282.2115605227066,327.0617387181148
-907.2007260379437,286.1140144697731,330.976429259737
-891.6235411684929,289.8981813361342,335.12157566549234
-887.742501261899,293.7363931617831,335.16644317886335
-887.9872331530137,278.22752927860176,331.29050185333426
-891.5419638714548,301.50459127224894,335.08282644939914
-898.9481627263134,286.1915129019594,346.7983460203026
-880.0354861242117,274.36790341248036,339.2718206523125
-876.6724620538106,281.93929629384144,323.5977627426288
-880.11706342125,282.0708396853156,335.32042032702304
-872.6833322286408,281.94337515869336,327.5828137029465
-892.3047115987622,270.4175228034038,319.47810924219795
-891.8407407218572,278.25710104877817,331.2323780291945
-891.3777895611652,266.7883528014154,346.97679635757373
-887.9872331530137,278.22752927860176,331.29050185333426
-894.8764358878926,278.49265549397603,354.7337775896968
-914.3346606639373,290.1786032947031,346.5536141291879
-899.384601265468,282.2197182524104,335.0308209225373
-891.7316310870685,274.42296808798113,335.1715417599283
-880.1721280967507,293.6435989864021,331.35576369096486
-891.8407407218572,278.25710104877817,331.2323780291945
-902.4468090530407,278.58646938557007,358.54547679380835
-903.4838604416393,286.0497723483555,327.1076259476988
-903.0739345240221,286.15276368586626,338.8873876400198
-907.3638806320201,282.2115605227066,327.0617387181148
-903.2931735098124,293.82204932367324,331.0090601785524
-884.5701641233246,274.2271825750894,319.58110057970873
-884.2978998944595,274.2955035613589,327.43393513585175
-884.4345418669985,274.26083321011765,323.5080277158867
-872.6282675531401,270.37163557381984,331.5474703390047
-891.7866957625694,266.6853614639046,335.1970346652527
-899.4937109002566,266.74552472047037,335.08180673318617
-895.7217806284511,255.1095430141792,335.17766005720614
-891.7040987493183,258.98242519106935,339.14843499054217
-884.3244125159969,251.11735404037057,331.4363212717901
-907.281283618769,235.8889121157582,338.99343812616956
-891.6500537900303,247.41068560619584,343.11309162660035
-899.7384427913713,251.23564112107601,331.2058654076571
-892.2771792610117,254.97697990649206,323.4550024728119
-879.8172668546345,266.6986177746733,347.15014811378
-876.6449297160601,266.4977336807167,327.57567568945564
-907.6912095363862,255.09628670341047,323.22454660867885
-899.4111138870053,259.04156873142205,339.0332070584757
-896.0491095328172,266.6129616127832,323.3591491487919
-903.5103730631766,262.87162282736716,331.1100120836372
-899.8750847639103,270.51133669499785,323.2887887300965
-907.4719705505959,247.42700106560346,331.1028740701463
-880.0619987457491,270.4991001004421,339.28405724686826
-888.5868262862447,251.0439344730362,319.5994554715423
-891.8132083841067,262.8165581518664,335.2092712598084
-903.7285923327539,251.23156225622412,327.22081444733936
-880.1986407182882,270.46544946541377,335.35814982690323
-888.2594973818788,258.8498620833822,327.4267971223609
-888.3961393544178,258.81621144835395,323.50088970239585
-884.0796806248821,266.6262179235519,335.3122625973192
-895.9124675602781,266.64661224781145,327.2860762849699
-895.9940448573163,255.04122202790967,327.32380578485015
-868.9114019568356,270.3073934524022,327.6786670269664
-896.6487026660482,258.73871301616765,307.67897294183035
-899.6568654943331,262.8420510571908,331.16711619156393
-899.9291297231982,262.77373007092126,323.3142816354209
-891.4053218989156,282.2288956983272,342.9999031269598
-896.0491095328172,266.6129616127832,323.3591491487919
-907.5545675638471,274.43928354738875,323.16132420347424
-907.8268317927121,255.06161635216924,319.29761947250086
-907.4189453075211,274.47395389863004,327.0872316234392
-899.6568654943331,282.15139726614086,327.1779863663943
-903.3196861313497,270.643899802685,335.01144631449074
-907.6912095363862,255.09628670341047,323.22454660867885
-896.0766418705674,282.05350450969496,319.38225591817803
-895.8849352225276,270.5154155598497,327.2738396904142
-876.509307459734,266.5324040319579,331.50158310942066
-869.7567466973943,266.23362718155545,304.1313802368801
-888.1779200848406,251.14692581054695,331.3792171638633
-888.3145620573795,251.1122554593057,327.4522900276853
-888.0963427878023,262.7533357466617,331.3414876639832
-887.8240785589372,262.8216567329313,339.1943222201262
-888.3961393544178,258.81621144835395,323.50088970239585
-883.534132450939,266.76285989609096,351.0189514258182
-887.6058592893598,274.4617173040743,343.08250014021104
-891.6775861277807,262.8512285031076,339.1361983959864
-895.6126709936625,251.27439033716922,339.1168237879399
-896.1571994513928,251.13774836463014,323.4101349594408
-895.3944517240853,262.91547062452526,343.0050017080247
-907.0090193899039,255.2665793109778,342.8571428571429
-899.8750847639103,270.51133669499785,323.2887887300965
-899.7384427913713,270.5449873300261,327.2157158662744
-880.4168599878656,258.82436917805774,331.46895219060536
-896.0756221543545,243.4348120917949,327.36255500094325
-891.6765664115678,243.54188229415755,343.1263479373691
-896.103154492105,239.56600877975666,327.374791595499
-880.580014581942,254.92191523099123,327.5552813651961
-923.4590813376637,224.23049665278154,319.16709579723965
-907.5535478476341,235.82059112948866,331.14060357002654
-912.4991714805772,254.886225163537,295.67997226371904
-916.0793951043426,254.9841179199829,303.4757027119353
-907.6912095363862,255.09628670341047,323.22454660867885
-912.0076682659217,247.28526051199955,311.41215399754253
-912.1443102384608,266.5609560859213,303.49609703619484
-912.1983551977486,258.8233494618448,303.5205702253063
-920.2867441990894,243.33997848398795,295.60247383153273
-912.2534198732493,251.08574283776827,303.5460631306308
-916.4617886842093,258.75094961072335,291.6837044250585
-920.0144799702243,262.7176456792075,299.4661785625061
-916.106927442093,251.11531460794464,303.48793930649106
-912.9621226412689,247.0456272019497,283.92570347672245
-916.9787848041891,243.17274502505956,279.95390882717345
-925.0131288462421,235.4269806712792,272.01133924428837
-928.0212916745271,239.5303187123024,295.49948249402195
-920.6691377789562,247.10579045851543,283.81047554465596
-924.5766903070877,239.39775560461527,283.77784462584066
-936.6011838905234,250.9562388787201,267.8600745412552
-920.9689343455717,243.16866616020764,275.96987758306864
-913.698357747039,239.13772797030586,264.3186001335829
-944.198069677209,227.87190324932573,275.6731401650921
-936.9274930786763,223.84096505942398,264.0218627156063
-914.2714382587327,235.1322826857286,248.62516761585255
-918.5878969882682,208.01191028536758,240.80292454609886
-903.5287279550103,215.5282384912279,229.22914552879936
-896.3121963157655,223.0690398861997,213.61321144325535
-900.4389878296871,223.03029067010655,205.70225306297263
-896.6935701794191,207.52652536799013,205.81034298154827
-935.6100197315088,192.2807482677571,197.43031514329564
-905.8455231908961,195.63765404088045,166.46765205243383
-897.4838502444771,191.87999979605678,186.2287325437331
-901.8553736495135,176.33238669678232,174.44183283792123
-890.5681348880607,195.48367689272078,162.7722004966018
-893.5762977163457,218.897380858907,182.27121392116575
-890.2683383214452,218.73014739997862,166.62264891680647
-897.5399346361908,222.76108558988037,178.27392636629227
-902.020567676016,230.35797137656596,158.55873310457702
-901.3934422050345,242.10102328521975,174.22667271698288
-905.3285270709163,249.83353132823137,170.21714856755366
-928.8309463476315,253.77779364003004,158.07742705205143
-928.5046371594786,261.583721250376,165.905788419083
-947.5529360179063,254.0643338958768,173.49451647606475
-951.5155532215385,238.61869241790015,173.4873784625739
-963.4299174539726,227.0336965222579,165.4989216501048
-986.9323367306879,230.97795883405652,153.36021985081553
-1005.4361071313854,223.59419373588332,176.65563673629632
-1012.6251064328799,219.9221956529498,192.2583145110716
-1027.7107880876754,227.84743006021426,199.85520029775716
-1016.4786140017234,219.95176742312617,192.20019068693185
-1016.178817435108,243.198237930384,196.05165882334947
-1016.2879270698965,227.72404439844397,196.10162491778541
-1024.3763160712374,231.54899991332414,184.19439869884212
-1020.3892256784939,231.55409849438905,188.1784299429469
-997.4303151432957,246.78152070278847,180.6213130885675
-1000.5741002279067,231.5418618998333,204.1736984597187
-982.124374786497,231.18802037393,180.90377447956234
-958.3221589431663,231.17986264422615,200.8830742404389
-938.7558442485457,254.27847430060217,205.02312206512931
-930.3676586805892,273.69896957676684,220.7818164204902
-942.7725064114659,250.40457240749905,201.05132741558026
-951.1341793578847,254.1622266523227,181.29024692428098
-930.5308132746657,250.48614970453727,220.85727542025057
-930.0393100600105,262.1955509781628,232.5993076126914
-943.044770640331,250.3362514212295,193.19849285943724
-942.6633967766771,265.8797856556521,201.00034160493135
-962.3949054978001,258.1880662611596,188.95749312966203
-962.258263525261,258.2227366124008,192.88340054962705
-959.3316779940144,242.51298863526281,169.43298679977363
-968.1297894795879,242.29884823053746,137.90438121070906
-970.5373394584288,234.96708865922616,181.0638699249999
-971.4917938337761,234.72745534917638,153.5784391203928
-983.6519096735381,226.94294177930286,137.723891441012
-972.5002931684114,226.75123513126297,126.11748150489721
-968.0747248040872,230.72710864566392,141.86903784676724
-973.2640606119319,234.282859080318,102.53348493114366
-981.298404653985,226.53709472653762,94.58989563204561
-965.5570454742447,234.22371553996524,102.64871286321018
-958.3140012134625,226.32397403802523,91.0102838380079
-950.2256122121215,241.8073450158821,98.9283802317815
-939.2381700172842,237.71318442077575,83.40829947025743
-928.6321016861008,237.38381608398385,56.096016478614004
-897.395134933948,256.5585597528208,64.34837584700179
-875.774092070177,236.6944879240108,25.493109267690805
-861.0962969005727,228.66626217923553,6.116941055304309
-853.4443464383862,220.8695120148063,6.257876033099989
-857.8158698434227,224.63124512448186,-9.518785721933586
-843.2206716870696,243.61632157770498,-36.836534392478576
-836.3855139114785,235.61460845446715,-60.25492905324448
-832.7777579499626,239.38449929384657,-68.06279412439518
-840.8661469513034,223.9011283159897,-75.9809924897901
-828.9517827188694,216.17677800268186,-64.00259007918096
-830.450765551947,215.80050272009305,-107.19460774066579
-818.7811332106277,211.87663473255395,-103.0820922537258
-803.9677157846971,223.193445264183,-122.52094242172404
-804.6223735934291,226.89093625244095,-142.1667949809568
-805.5227830094885,234.38890956646765,-169.67771869088836
-774.9945190253553,230.2131716743231,-177.05536549178368
-767.9146293586496,218.41097622531652,-192.60807717212302
-760.6980977194048,187.3330852023882,-200.24473189111472
-729.8159922093682,175.52375173989083,-195.81712409436454
-699.3693055222732,159.74160391163142,-203.15704139537968
-696.4702523287771,159.47239883140523,-230.58536809206
-684.8821972844959,143.94314062396435,-226.43512310523982
-674.9042741405068,151.1810863036817,-273.4052913074292
-714.7741583517309,116.38632968444882,-305.2816201251192
-722.2894668413782,104.9073842749563,-297.5062840011625
-723.3530308515142,89.19345546134512,-324.9417487113337
-751.0362866014389,85.36207573432314,-344.9669357017942
-784.9816196152611,93.53826230160148,-325.8798876272734
-796.0516588233496,124.64603100957004,-318.3013567324214
-811.8470629623777,128.53114978101596,-330.3248305996442
-815.3732416268554,117.0573029525883,-318.56546323158267
-811.8195306246272,93.78075081704763,-322.3577878276476
-788.5618432390266,93.63646097291125,-318.08415717905706
-770.3303370671943,81.64204901775837,-345.24327879551123
-791.1519224199906,54.36780144085902,-384.709355386396
-807.7110940025392,46.47570781051634,-416.3276960022026
-858.2961561797352,35.1537986978224,-428.8212590436082
-900.5480974644757,35.51528809532307,-425.53063482432844
-939.7378309616436,58.819984398341944,-449.74379630148934
-962.5590798080895,82.24500721449222,-446.24005139369723
-985.543483248612,82.45782198814071,-442.6608474861447
-989.3694584797053,86.35629904197663,-442.7312079048401
-1020.3076483814556,71.11939347279653,-443.1431732548832
-1010.0819341977128,55.24740864617378,-478.25812076499113
-1021.1540128382271,47.73607704975706,-462.7003105035869
-1048.2070839685318,55.647647259767616,-467.0565381654286
-1073.8427495627968,52.329184787873544,-428.182916694284
-1081.500818322261,60.12613889554538,-428.32465724788796
-1080.0222298134431,75.94316101828862,-389.10943084539576
-1075.168380639668,103.19935961821827,-365.58049894714304
-1054.8046478664987,122.6341309213646,-337.86869114325486
-1063.441644190422,145.63179067265582,-369.4727557320798
-1079.288034140099,122.46995661107515,-377.48160686880846
-1090.6272784284135,95.58126373430277,-365.7864816221646
-1089.7095338367335,111.26123599802176,-342.27794404817143
-1120.1480627941246,127.04236411006818,-334.9380267471563
-1148.3228217587048,169.4309473673477,-378.67365512177963
-1187.2453896080722,173.49451647606475,-391.04485221762786
-1186.5825740696366,150.48767927885672,-367.4088501170125
-1196.9224964692328,131.57500267675508,-328.25378697108596
-1209.108105214319,119.9216857948433,-344.09609805591106
-1191.1712970280373,103.98963968327615,-379.0947979177395
-1173.621981002687,91.82432329082818,-425.88651578265774
-1167.116191563888,95.3257228513305,-461.12280952211006
-1203.469074556551,91.31436321271791,-508.74865524924417
-1206.6098004925232,114.69360077090546,-493.1765689608582
-1214.6961500614382,99.20941402007823,-501.0946653546319
-1168.6355687212251,105.53349002972473,-618.164204901776
-1222.4765847664596,160.04445962688584,-627.0041247520816
-1259.87977545849,134.59030351853082,-478.34275721066837
-1204.5703680665672,81.44371421433416,-316.426098616755
-1163.220875630312,-65.895183370468,-315.3095093635442
-1151.5655193159744,-117.16233372252503,-413.076840715229
-1156.021679166688,-67.07897192211408,-440.78558937047825
-1075.8006046917144,-18.671513717732356,-581.0332784386106
-1030.6475707810519,0.007195953766066905,-615.7413591797404
-973.1182411934759,-58.435755329291865,-610.7580060469172
-905.2806004089063,-179.072364161054,-628.9579010161473
-899.7629159804827,-194.13255291052502,-577.8048569083226
-895.3924122916593,-139.96624739335044,-573.9972365690629
-875.4722560711355,-85.88447635023174,-566.0322332294924
-832.5126317345885,-43.587463608877655,-557.681777161416
-797.8045509934586,-20.677193537038647,-561.1641080287357
-775.5288503209558,-24.9296140883992,-584.3636715901965
-735.9302106223839,-48.1317269403925,-548.3707484207146
-707.9461385896307,-98.2913635135342,-508.5355345607318
-710.9808140394529,-117.36627696512062,-481.0450051750598
-712.6796612502741,-139.96726710956344,-414.27500726547805
-718.3421453809406,-100.77549417996973,-363.4727455349177
-712.5256841021145,-92.58900847894033,-308.46823329067524
-705.0368882340046,-84.97947821121383,-316.2313328200762
-680.251665961363,-100.18823961291574,-264.7886893077657
-671.2088225846747,-123.08382577128785,-221.40486302661972
-651.2040299184737,-153.94349752463893,-193.52888091244208
-627.076524603203,-68.90701717711961,-181.67977851763857
-602.6471832888908,-18.552716778920427,-154.01181851090843
-574.9088628634652,-64.91207496953598,-122.0426955178374
-578.7613507160958,-103.50119561725973,-114.12153997542487
-592.9425440899798,27.235396389184892,-216.81512035200606
-632.8746309901956,370.89220070054506,-328.46180907853346
-715.4226978631848,727.4002845008234,-338.7497259512678
-845.1611916403666,470.9814258691807,-139.6725691240128
-981.9265498411793,-223.59419373588332,-53.036561924816326
-1102.568155282385,-378.4421795414337,-168.13488806065274
-1139.8387828667285,-55.42076040238002,-420.95924704154834
-1223.3739350338801,219.74272559946567,-442.7617993912295
-1224.1081307072243,115.28707560685862,-442.4201944598819
-1230.2060336608322,-379.5720251054132,-405.52074357706255
-1260.3590420785897,-837.7325590288225,-180.72328470986525
-1251.151004675399,-895.3444856296493,-125.44650823675772
-1165.1481392728406,-586.7406300826481,-152.67191140705543
-1063.9616994590406,-458.8243691780578,-37.7733476773414
-1074.9644373970725,-391.9452616336874,75.65029852192136
-1074.9950288834618,-275.1020990858245,161.59748741925125
-1054.3559727327886,-202.52685677575934,75.31980849729521
-992.7233051041898,-231.03710237440922,-29.625509220783858
-954.2871418884125,-328.9033461987529,-122.91047401508162
-966.8928737132458,-297.1850733940745,-48.63852589824253
-921.0862017100641,2.581064889641213,-233.4211988803516
-1005.9836947377546,205.02006291649036,-168.65698276169746
-1031.6774841561594,232.58401186949678,-137.73816746799366
-1067.5612976908528,144.72118409446654,-43.788041787970414
-1193.8225591817798,75.42086237400133,-116.08857255025927
-1331.5556280687085,22.672064364487365,-78.72770008106745
-1292.041624815814,7.173183503031107,-46.68648315173888
-1298.5270199303534,-31.078298909413512,-3.4836666955586266
-1292.9797637317536,-61.57903055579633,51.64699464139131
-1267.6806044877712,-41.900852992612165,110.82887632371911
-1250.5187806233528,-26.134510765653925,158.12841286270034
-1215.4507400590417,8.450378059785962,162.46118705164355
-1161.8646530670517,15.668653413754953,151.46558712710257
-1132.7925438350508,100.94843804969078,194.78415157061792
-1110.705490661949,108.23369856169029,163.69402395313386
-1042.8943624989167,60.965671253690104,129.54780684535496
-1056.2628420510573,100.21658772363652,180.23484064384886
-996.5268465785972,104.11812392611138,236.0612441557515
-1060.943339468626,162.82522573967668,254.5211667592909
-1059.6279055538846,169.8837013659099,179.94932010421502
-1043.5367837130927,150.6263606838217,203.8035414744077
-1015.4130105591615,139.1188632203658,239.58436367159024
-1023.2342339127022,162.32250564667854,231.53982246740736
-992.9751750087952,177.38881269342744,212.31919156898635
-992.3194974838503,135.0716095710564,239.94432349477145
-957.2290231628539,115.59706933560392,256.2342899970938
-987.5390678774098,131.4128677988916,267.50113443428694
-960.2922506666395,131.27316667771362,275.75879632698224
-953.021674068107,146.5515746967619,260.11736933611377
-956.7936043399122,138.87821019410302,264.0116655534765
-921.5389557086264,123.30612390571704,284.2153028812082
-971.4713995095167,166.2147624316153,279.39816349110043
-966.4727506334988,174.19608123059353,310.84315235070085
-919.9573758622976,135.28880912442068,327.36867329822115
-935.6171577449996,139.20859824710786,319.27212656717643
-914.904682026992,131.6983883385254,362.77831879387975
-903.0708753753831,131.67697429805287,370.80552482244195
-926.0012338566179,120.31835540169173,378.3493853660527
-906.5144570266096,93.1909469594612,390.50644205717555
-913.4597441532022,143.64640320598778,402.00578179092764
-913.5137891124901,155.21814279086132,398.0411251548694
-894.7917994422154,135.62327604227744,386.6141852722388
-901.5984051638429,128.18444626860347,414.00988105010384
-913.6228987472788,120.4346030499712,402.082260506901
-878.6690663988213,158.85343109012763,402.47587096511046
-858.9650900154488,143.36700096363185,418.52212529253114
-861.7825659119068,135.93225005480977,449.9018523145009
-861.7815461956939,116.62290384585971,453.8909821396706
-873.6143331310898,97.3346657625183,449.85494536870397
-864.8172413617291,136.16780450000766,473.40325187500326
-880.6677101762581,151.62466285632712,457.4151213717223
-872.3335695675894,124.68885909051512,481.1785879989599
-829.9460060265229,124.36153018614921,481.8148909158582
-845.7954551248389,120.51006204973157,469.8158902377468
-872.6608984719554,116.88395119638206,473.3502266319284
-849.0208175064881,93.66358542417646,493.4060051087783
-821.5017360668527,112.90195938470325,505.52737173244697
-821.0112525684103,124.61034094211583,517.2694039248878
-798.5448649640806,128.12938159310266,497.9702548780675
-817.0761677025284,116.87783289910419,521.278928074317
-812.2671860421246,97.77763048543592,552.8126322444465
-803.8239357986673,86.31714193939827,576.5251130610352
-820.0292658553126,109.40943135525384,548.7317279601087
-800.3528218096905,109.36252440945687,560.8010890569155
-798.4632876670424,139.73579152921744,497.9325253781873
-799.7532286764595,117.23677300607241,576.481265263877
-777.5040406254941,70.4971626396374,561.2742373797373
-765.261327772481,51.26949569934688,585.0703349257902
-755.7280008973503,78.70149337439392,632.2158943166118
-789.8171138972025,53.08091958008087,765.2286968536657
-765.5906961092729,159.32046111567152,553.3041354591018
-778.2045856638098,157.27593010865078,745.4278474300603
-785.6291394105021,113.92881361117202,651.2723509047432
-793.7991057088814,86.83913466882169,643.3919840108499
-798.0074745198413,94.50372961204897,631.5296253052777
-768.9068132338771,106.41452483773769,690.7945118873419
-724.7643180902757,97.80699831236967,632.6156230720991
-789.056405602321,200.0244731891115,756.89557596121
-820.375969367725,227.17237792722287,736.711313241525
-790.4717717059343,56.77861451158143,745.582844294433
-828.6499467198279,-47.1056884868941,776.7586280738071
-773.0927482881515,-12.36181570668883,816.7202867441991
-723.6334528100831,-19.635349482239096,911.6762604967039
-666.4324718430862,10.662866524246303,888.8835637042212
-703.2391285505245,-39.807477578989776,837.4817088404297
-660.3804561190622,1.4679426715545065,732.0195989456136
-681.1021092829867,71.76232454507911,786.417380043134
-695.9522364925842,61.43372099544697,915.7418690378468
-622.1553741593715,60.017641090484524,822.6611534010086
-605.7348839817879,183.73246725436314,826.4147287809803
-455.42769447262833,418.15298802343307,780.7793691015792
-455.8090683362821,402.60945378901056,772.977520356085
-484.88219728449576,355.9492793155665,721.6796765460173
-506.7561297690853,307.232337240546,878.50081322368
-462.08644134337425,270.7264968159362,730.1575971407158
-509.035195505091,189.80691673507266,725.802389195087
-454.1866998414341,181.89187948993796,754.122967578123
-471.4178644083352,111.04403644465746,604.9680573896286
-501.02124578729746,208.1373353795639,619.8956830314124
-508.0695242514009,30.714464164622985,675.3335746661705
-440.8182202892935,181.25965543789167,695.4566544130769
-562.8976255907982,-49.19314954648122,776.8218504790117
-656.5901709554232,17.866345795964985,837.986468365854
-653.2638566686892,45.73406820881749,928.207899741502
-597.9799421820908,99.71906818332458,956.3265743143685
-570.16106417584,122.89415855567397,976.2885388996244
-497.95597885108583,191.58938067535806,933.9672569124015
-360.54616000367105,106.22281818969782,1026.5789030912697
-386.25422544905757,-68.03322235421884,987.5360087287709
-516.8727343180393,15.17490682343104,1091.2595024804598
-584.4391305899569,193.80828315479803,1105.3519805438148
-635.9521345209629,186.11554404409256,1065.3587106708203
-576.9768473433844,139.6215833133639,1109.5634085034137
-535.5100875426369,-146.71778843947732,1142.5512279932495
-478.14085340049866,-286.301642252961,1159.5804887499812
-399.19034532689557,-309.5960394222288,1219.7131538292895
-340.73307398550986,-333.04951232072113,1244.216934427149
-402.82155476131,-491.01986917040995,1263.438585041783
-430.44974583573395,-506.4237022836545,1247.3780546873807
-413.8579433343701,-383.66210683566766,1145.171898660603
-337.03150413239996,-114.98116074296524,972.7338081811833
-198.85179954418686,265.142530833669,769.4411445294775
-120.39279468523911,727.327884649702,604.2226448379416
-175.9683480087492,1180.1787562521351,574.3898273110594
-242.40999729775206,1493.2622251227485,482.0728791177416
-331.1589584618601,1579.8769202530937,570.716809511913
-392.14920487628297,1455.9406117277565,503.50323504968577
-483.50456068076255,1398.01053366848,435.61154930582825
-467.1544309218745,1370.1009009192744,357.45845931077383
-441.26995457164276,1330.9947841515707,334.4302080730933
-407.70599542147426,1268.65953205223,315.5205906196306
-400.923862888958,1156.3683826791005,312.07598925219116
-436.04900756119576,1099.6007811026193,421.6312400259008
-465.37400641401507,1003.6638403532298,484.3091167728022
-448.67615342650146,876.4236512978439,547.7823721658262
-440.5847052765216,737.4322526041004,587.618605742022
-426.6502832261782,687.7343435321951,666.4875365185869
-395.9037999724677,656.5799737932934,670.9773470043289
-384.0985453748222,652.6907761569956,679.0167896274468
-381.6716207879347,688.0565738554961,741.7283170093764
-383.67332371401045,796.6838828753959,772.7287096001185
-394.58020832802237,831.6948193317801,784.2209113203796
-373.84121998847723,866.672105153136,819.7345678697619
-384.93777181810304,874.6014184252523,831.3154849005522
-361.65357181096505,878.3254220350477,835.5768789545871
-361.5709747977138,870.6224857622126,839.5282792798765
-338.42341676311486,874.3128387369796,839.8627461977334
-295.76358899318325,893.3631770278332,844.3617341293918
-289.14665048716944,873.7203836172395,817.0557733782689
-235.7696053188398,830.679181983654,810.1502551839824
-221.50071635063964,783.9302921996809,786.97414509542
-148.99379502684405,760.0159075729226,772.4431890604845
-114.31120719103875,721.1300495072222,780.9425236956556
-65.38807849775408,670.2441710471976,758.2997251864807
-16.682149357833715,588.40888580708,735.7578785823906
50.963070977347016,537.2374868074216,697.6969709329894
95.97823925601506,497.95393941865984,671.0313919636166
140.31193118954997,439.1897334971678,628.7233662871624
189.80793645128563,411.6196662468835,617.7838507543352
234.98646326727274,376.23857280518837,595.0319426103716
279.837661178894,352.3608979620972,560.4625432742068
300.6133593021063,328.4230598624403,498.06100962102255
295.88799437116654,320.51006204973163,474.46885531756516
287.7996053698256,285.7173448629247,470.54090846517414
306.4124854053117,269.9566110751378,455.1737851355968
321.0097229940908,231.01364890151075,439.82603641406604
363.50639616994596,207.54182111118476,448.39063288686765
382.2569378941841,172.50641146568913,440.9405862348509
416.1747385702559,141.1521773490438,425.85592429626837
466.0796500333958,132.99342792900737,422.7060209143796
500.02498304721803,86.19854894382895,411.5982522064111
537.0875885241138,70.08407560176003,372.9622246128903
563.6797479261522,54.33241728826869,365.5641834877354
558.6005414693092,15.4355462874682,338.14707366939786
553.6294249310417,-7.986468365853784,310.6789780404114
556.9108717044047,-31.331188530232044,299.0338188882034
579.1049950798694,-85.80871143560748,283.8512641931751
597.1733466576253,-121.01584129136863,256.76862129269426
651.1224526214355,-140.74123171521367,261.5674057909684
681.4600296737418,-191.30691928436318,258.2676041257718
728.9023264825399,-214.53401518357444,298.30268236349826
791.920788444576,-233.97796393263758,342.48290700698
835.4004680497418,-272.6507013098255,382.5108472312156
877.2975480923661,-265.37706556265397,367.4159881305033
886.0681272401893,-269.0317284699668,398.95683031412364
932.3102180663122,-288.6979753534592,403.6403868803312
1010.0074949141655,-316.16913013108456,428.44396404480636
1105.9332187852121,-355.6341870057563,426.08943930904036
1128.6219045239711,-379.09377820152656,418.65978698128316
1144.794603661801,-367.4353627385499,438.4861293102131
1133.4043735628377,-382.7525199736914,446.21557820458577
1109.1861135046117,-402.15771950666135,418.4466662927708
1046.6061295141562,-455.98038066006234,401.99150576394595
987.9622501057956,-517.535549856475,389.5468891007633
911.4478440649968,-560.2789943558709,302.20411659435183
872.1775529870039,-567.890156169538,282.01781444224076
804.5968806881045,-629.6941361219173,234.11868477002855
726.2204728424081,-698.9410247128225,209.63121963157656
659.1047911366268,-810.8334650466776,185.45476793808285
639.8933376841226,-880.1853844075195,201.1002737938032
607.7590206645491,-949.7891736729669,177.30519596396323
595.4632825684613,-996.2270500119819,165.50402023116968
594.3456735990375,-1019.6795031942611,138.09404842632298
608.4779205946986,-1047.1567762691643,107.00188137641297
591.919768728363,-1074.3526076692858,79.37297650063988
577.3235508557968,-1093.3397235549348,106.6908679314547
527.5287687436587,-1089.0161268119084,113.77993504407723
497.2197437453157,-1092.5137534224227,129.03590930644003
483.6870898828857,-1095.776845303952,183.7885516460769
464.2553777283782,-1060.9127479822366,171.6060020496296
431.97320185792296,-1009.8412811714501,229.8195612161136
413.632586051302,-955.3935339794937,245.06023973528173
398.6815069366196,-928.125302728251,252.59288340054965
367.9635757368725,-970.3405342293241,264.0493950533567
331.2028062590182,-1008.2168732441763,322.4954495163996
274.76457301932874,-1026.7420576853463,364.8840327736791
259.6228069728195,-1007.2410048283565,368.5152422080935
226.5238384157689,-1033.6047477986879,419.12885643925296
216.217566651201,-1010.035027251916,450.29138390785846
216.35318890752708,-990.6910106917246,450.2291812188668
224.1958263015403,-952.097811179149,446.2910372043461
231.84777676372667,-940.5852151346282,442.44262821656736
215.60675663962724,-897.1962902724172,520.5447324009729
131.4771099203092,-895.3832348457424,648.791381358568
66.67710176257948,-890.8373399682869,667.4287345831656
52.218035720658946,-909.7887657864817,698.6728393488092
55.55332351006716,-906.0861762171588,683.0120377498943
63.940387390189315,-828.736622597931,686.8013031973203
38.054993295365904,-731.7075657844423,697.860125527066
22.63953541729337,-654.3508741517237,681.6700912136154
34.14356584562517,-565.630465041579,661.9192078844458
95.00430830099984,-388.6587162792595,603.3650635028273
73.46259935859851,-260.64150346958445,622.2338923077708
16.475656824705684,-105.51411542167816,613.0075000127465
-43.6822972166846,11.1943426144504,631.3358792248118
-112.49917148057696,31.176191665859395,642.0112882584777
-178.7164832027247,-30.285979411929663,633.3773510831936
-162.11856240408295,-139.2381700172842,579.0489106881556
-127.48186179786167,-267.9559278652751,493.65991444580976
-113.17524332978132,-392.9292877792111,376.55774397985044
-150.17156725283354,-509.09943762650863,333.2249035093534
-286.720745616495,-579.8626442261119,519.799319849286
-427.0816231842679,-617.8205605380024,478.57933137207925
-578.0312339076036,-492.24964692326137,542.6124109660282
-620.9041823660476,-392.63153064502154,396.4238552410864
-549.5444417818522,-328.01007479618426,330.55630617999014
-402.68695222119686,-319.44037974231776,120.79762202179135
-343.5036429361709,-387.1862460677194,-46.846374653933815
-404.74881840383824,-444.5350858855981,-24.022576516955336
-574.5723565131824,-386.23790998964995,287.20613053387245
-769.1770380303162,9.799146497529739,702.890385605686
-813.1319053907298,-85.69399336164746,1232.3780291944754
-914.7976118246293,-251.22850310758517,1667.0422621384469
-1033.084692530069,-1210.8824114249007,1119.0671636083678
-1024.3253302605885,-1724.431890604845,810.8834311411135
-729.455012669974,-1705.0062967476156,646.4756058388951
-561.0784518668455,-1563.7246154395234,585.728051883161
-507.90942880596333,-1242.7995288911097,608.9887984174005
-519.4210051342711,-945.3330138222534,548.9438289324082
-573.8646734613758,-724.9121769411573,488.51544615133616
-560.1443918157578,-598.012573100906,413.725380226683
-530.9264631653012,-556.1736168824217,359.07674894076985
-516.4954393192374,-521.782667883528,323.8557509445122
-492.0120530456374,-482.9998011553385,355.4883675873005
-427.7393401416386,-440.3389536691939,423.0251920890417
-384.6155414948021,-394.13867120780293,435.28931898252716
-312.2279269679249,-351.43397592450026,514.7221528248689
-298.0212406887164,-401.064583726349,601.4439181575768
-307.39753126704846,-516.2843580631511,688.0341400988106
-317.94445605787917,-739.9315770421092,763.1984418736266
-434.9976801456155,-900.6052015724025,864.0269612966712
-415.8657645577236,-958.7167891175886,872.3590624729138
-164.47308713984899,-920.8057797514953,1005.5095266987199
31.116130380914996,-836.5996543162039,1074.8726629379046
-214.0873794822901,-807.306266665987,1106.4226825674416
-56.20553399988784,-785.3823680869615,1100.8652292067118
26.62479032085371,-727.6001488785672,1145.080124201435
3.337704516832966,-596.1587290257122,1112.8876833577217
-39.789734516883954,-449.2645296813897,1060.7291990639008
-52.853930751071985,-256.457607847736,977.4673308418269
-46.296645643517415,-52.124629715550164,902.3091473642886
-38.291873371640676,48.300082087155154,890.3162649834551
-7.803296742516559,218.897380858907,956.9159702854697
29.475305022612208,291.66025095216,906.2085421627162
88.78556897615395,286.7340019272637,840.3950380609077
55.32347947566193,272.85668398484705,989.0757802103675
-47.10884960715433,173.65461192150227,1054.5905074617735
41.58759617198534,-17.24248341686509,985.9248571122658
56.160054656789015,-214.5299363187225,1002.5064624514998
62.64106499161284,-272.8250727822447,979.2528539307511
77.48436010258347,-373.49655590849073,983.7396052678541
111.29488663305003,-458.94469569118917,976.6852085064728
172.51354947917997,-444.08335160324884,961.8534361887089
203.91265110919633,-382.3874615694453,966.0403909591962
247.4168039034737,-301.3342986646817,982.1172367730062
252.114636496663,-239.36206553716104,993.7521987630844
210.95175212738297,-180.79874370962565,1016.4857520152143
191.08462114993398,-169.21476753019635,996.5258268623843
183.8956218484396,-172.88676561312988,1012.1295243533725
163.61958466958646,-180.71512698016144,984.3789673333913
136.48289680981784,-203.71890502873052,984.0506187128124
116.39754656279159,-223.08535534560735,964.1916454650672
124.37784564555686,-242.38552410864062,976.1498574946594
119.02433552742274,-262.04157383000313,936.8897635787961
118.37069743490387,-296.9627752596453,925.2242101023286
98.80366893893431,-300.75102099085825,917.0950324524686
98.91206477237385,-265.9664615337552,913.05491681665
67.89321531817696,-254.19077870628607,904.7003818837219
71.63751128061062,-250.3862175156654,900.8193419771279
76.14557468656474,-254.11328027409974,920.5222986442875
77.20883278183683,-238.39945343210985,947.9577633544586
72.31929354060766,-250.21490519188512,920.4519382255919
60.568185873871315,-257.8974471404609,916.3771522385321
23.4790677754381,-264.96102134775896,959.0165856842042
34.95750332682415,-257.34680038545275,955.238537115121
19.98031947708953,-272.5660648641483,970.76371645771
11.946689236385515,-299.6221951430917,966.8102766999946
-14.727659292418922,-295.4770487373364,974.2460473250296
-33.34033538466245,-299.02566115849964,993.6023004797765
-44.76482794838197,-279.59292928777927,993.3657263183658
-36.813182891201386,-244.83386273600058,993.3667460345787
-52.77276134051894,-225.54185170267115,973.439451800564
-56.899348911198025,-206.2712547098143,961.5393635951116
-60.508124588926904,-171.42347284750656,961.3680512713313
-69.52374154272867,-183.27767382337498,925.9512677621818
-61.10832955188572,-159.9873555189591,941.696705806774
-96.08969423809354,-144.3479679605166,929.3459030351855
-61.736474739080116,-113.80236880076276,914.0593372864333
-61.70924831619361,-109.9335654887245,914.0471006918775
-54.62935864948785,-121.73678065394401,898.4943890115383
-52.96589559125697,-117.45703170807566,945.6001794700536
-61.381409553721205,-140.74633029627856,929.8537217092485
-65.67104974685546,-144.68855317565124,918.0290925035563
-68.48811775682829,-152.12228436826035,949.4088195255262
-68.70643899802687,-144.45299873045334,941.5304920640586
-67.0970208990838,-167.22122233382453,992.6519249692813
-58.54435510597401,-182.51594581228048,1020.3076483814556
-41.11291827484411,-166.6817924571592,1075.453901179302
-30.35185307928804,-158.25077880825768,1161.9258360398303
-34.531975751148465,-185.3364808573774,1158.0305201062547
20.31611202602316,-173.94115217734907,1182.360948947908
51.879489937950275,-146.96150061437905,1198.44187362657
63.03008672686393,-108.53451484451878,1178.8633223373938
90.52204371523406,-93.16565799737934,1190.997945271831
86.04120673216644,-85.56948601204286,1171.2766337128378
92.62979712745944,-70.46188045866836,1136.0046499059313
86.97608255622461,-55.43615811719599,1080.9195800808636
76.81532429524864,-75.30165754870421,1014.1200104011054
71.32639586403106,-114.30101002890898,974.9231388904468
73.70763716457711,-130.14739997858598,935.7660363120943
63.874207807967046,-161.51692983842597,880.7798789596856
58.71281222435796,-212.02041471858382,853.4015183574412
39.637082999801166,-242.71897131028436,864.9926325503613
42.07308306098413,-270.13710084483495,829.8001866080672
57.46009085671458,-293.4345571627416,834.0340483243515
37.948127036245815,-328.10388868777824,833.8586571357192
34.96708865922614,-320.13174733471675,857.334563790897
23.433996318824477,-316.1732089959365,857.1489754401352
5.5297680655473584,-296.373379288544,892.1354387074078
14.518209582273256,-288.3879816247139,927.5644588111129
15.663452861068766,-280.3760713393463,958.9513238465736
8.665446406265138,-276.276812163175,978.4564555684154
1.831012629185298,-268.27509903993723,1001.8742383994536
17.408391244716597,-264.49093217357614,1006.0193848052088
18.280452550055323,-237.23901638174098,1025.559186878292
34.62079303329884,-202.36880076274775,1045.3110899236742
3.983439808701239,-175.04958370085606,1044.7604431686661
-8.012787241310743,-198.2409895326131,1036.8168538695681
13.32738498875763,-213.31749374149177,1099.9780761014213
36.721204488790775,-232.73696930144342,1112.1636848465073
76.12874936905061,-244.40150306169795,1140.267063676179
114.85369621634301,-217.6176370116197,1140.7565274584083
110.48217281130664,-213.85590390194412,1124.9815176436398
94.19526545762315,-202.36982047896072,1097.2248423263807
36.665629955183476,-182.54653729866982,1100.2228079925358
-5.150617183237905,-139.5940509756135,1107.2996385106026
-27.20816996629838,-123.7017737963525,1134.3934982894261
-58.444117002238286,-162.18484395792652,1130.1310845191786
-66.4501129335706,-204.68151713378168,1130.151478843438
-55.40668831864093,-258.9671294478747,1126.5722749358856
-80.08167926865954,-266.9025610172689,1083.0609841281173
-126.20619681542628,-255.92633570077453,972.4421693442716
-131.2599103669449,-252.33591491487923,937.033543564826
-128.63210168610078,-291.292133399275,909.7316616785549
-102.25612212121368,-376.6128086553513,910.4148715412501
-91.5136157607338,-396.21583313363897,891.0188494541969
-73.80104316968588,-385.16924739844904,844.1506528733055
-73.50236829090466,-323.3040844732911,840.0218219269578
-70.24100992693734,-297.4451010283838,706.5470879454249
-1.2070278841398439,-247.85834102369313,687.7904279239089
12.59737015188673,-225.20942421724035,636.9004705990324
64.28219626477951,-218.4701197656692,570.9340090652772
105.17047105790459,-199.86437774367397,524.3880428076866
138.3785492497438,-177.3306888692877,477.71359230726097
153.95471440298166,-154.23717579397655,477.8696088878466
172.67670407325645,-135.21335012466034,458.46236992245065
175.9846634681568,-116.07021765842568,438.82467509292167
160.73480750307192,-150.66714933234084,450.4861497045373
145.56754855123822,-212.27738320425428,470.09019389903796
139.08827173397646,-250.52897778548234,513.2925106942739
117.85064216628514,-311.668102767,579.8993540097791
95.30420683923666,-384.72159198095176,611.2056614644146
51.32710966538013,-430.1397521069887,685.2676500130015
41.48613440879404,-495.27106606231496,748.1341742593037
15.848633325345558,-517.8985688282952,790.996925555618
-12.224052046315512,-551.726634477625,877.0324218769917
-31.47211331086559,-562.1624102012411,990.5931179352787
-39.07878837319575,-541.7721648065344,1100.3043852895742
-58.70954913247644,-509.82241642150996,1194.0876853971542
-64.21734231363412,-442.5629547296988,1354.6929889411779
-98.5541443816186,-348.52676500130013,1455.8998230792372
-82.25153339825528,-216.12171332718106,1565.580498947143
-80.64609219254282,-45.79514920997487,1576.8075744520302
-129.4346183457144,63.05272442679203,1591.4099106218741
-163.317748670545,112.72860762849702,1492.6198039085725
-217.50240907955316,112.09026527917281,1374.0675969877584
-230.309024998343,103.14633437514341,1228.696853665625
-215.59553976128444,94.13132925106943,1099.437626508543
-199.955132486629,62.17770594443567,1001.6611177109411
-179.34258895749315,53.646046305313234,931.355763690965
-157.52983944568228,22.24408946990053,900.3920808838901
-170.53530002600277,-8.924291169767454,864.9803959558055
-156.83847185328324,-40.369341212340615,822.1207038081303
-161.10088562353098,-79.06104531108994,818.2631173744347
-147.5131670856001,-125.98083953235815,775.4544110374084
-147.7303666389644,-176.24061223761427,779.5444927676629
-144.74769671600396,-242.1407922175259,768.03801502042
-96.45108166397293,-324.07906879515434,733.7164067240087
-80.73613313414877,-378.1892899206151,753.756889457664
-41.27393146487333,-401.4255632657432,785.8239052071809
-31.90314735409136,-416.5153237853906,837.0350731391455
1.6779124369687917,-373.5811923541679,908.0368933325856
28.86082403267171,-318.6745728663713,1014.2230017386163
50.74515762263363,-275.6853767596478,1081.1235233234593
67.8220391265111,-252.21558840174785,1124.471659537151
89.51568578464614,-216.99866927034208,1187.4697271749274
120.06954464572512,-178.68691143254836,1172.1026038453501
139.2279728551544,-155.6912911136831,1164.4649294101453
173.6352373134557,-136.71845125501576,1153.1358822839607
190.13934422050346,-117.25410818169304,1180.7905859799218
185.495556586602,-113.560696058287,1157.1637613252233
181.77869099029743,-113.49747365308235,1161.0284857724096
168.03597558799387,-113.95532623270945,1098.0304181346332
135.62735490712936,-125.69939785757626,1054.4171557055672
90.70324728628025,-137.5943874819638,983.141031850836
74.17099621175429,-122.30782173321167,947.520305099091
31.128468947092028,-118.28300184058779,927.2391693391729
6.4266288691857065,-149.3965829309703,887.7282252349173
-25.46425129886353,-164.87281589533634,859.8308290802671
-32.95202745076046,-211.1006306944778,875.5721882600074
-53.14577353122627,-245.9412745432946,855.7642008229111
-60.79752005017004,-276.7632167967655,863.6027593520723
-64.92288396139355,-315.42065843075875,863.6721000545549
-84.05265814523818,-373.16616785548587,879.2788566941822
-92.14104714657913,-388.6495388333427,871.3607603004085
-115.39720495786025,-427.1244512652129,875.0664090183702
-127.420678825083,-454.18466040900825,867.1279183003371
-131.0559671243493,-442.5140083514758,870.9589921124953
-161.80143066184684,-469.2886969556373,878.4386105346883
-176.94319670835608,-449.7917229634993,882.0698199691027
-173.79941162374513,-434.55206416054415,858.5184543141645
-192.03091779557752,-383.9394696455977,877.6972768478533
-196.23928660653743,-356.9649166636926,861.8447686008985
-207.44698750337784,-306.58277801287903,861.5072425344027
-188.12540469987206,-260.3753575379972,853.7910499507989
-191.18863220365773,-225.38991398693744,869.3264264555175
-163.99687966838832,-194.64852931429184,869.629282170772
-165.9424982027502,-155.52099850611577,916.563760305507
-153.291898864546,-136.02708366261672,944.1603401773287
-151.2463481413123,-135.5141664074888,1003.0581289227208
-129.90674695232318,-131.28132440741743,1062.2281818969782
-108.97605196473822,-127.15045402864385,1109.6245914761923
-84.30106101471961,-119.21502245924961,1153.1460794460904
-60.634977285821364,-119.2568308239817,1169.1964126383627
-25.571933330954,-123.29082816252239,1181.5043873290065
3.0376938098127293,-84.47012996283135,1221.0489820682906
29.275338673247237,-73.27752086594302,1197.8606353851724
60.15662841031342,-27.159325559696743,1190.314735409136
93.33788806575132,-27.8033783198136,1147.6498090581392
118.59401528554606,-20.71889993014944,1096.980110435266
127.2911748660348,-21.526413199206665,1014.6951303452252
121.93766474790067,-21.872912768376562,971.4448868879791
150.63859727837746,-53.53958793267834,917.0369086283288
156.71100732666102,-111.93730784722614,882.0035384152591
140.125323122575,-162.31740706561365,858.3777334767734
115.66946918672535,-235.85016289966504,834.7111398897688
131.33027078564038,-278.3876247240393,850.7879857035788
107.80133888738764,-316.93085814217903,846.6407998653975
84.13566304497459,-355.5077421953471,838.5677066072512
72.82160574712059,-397.83820162848684,854.238705368296
57.40859518795919,-436.3375872494686,861.9875288707154
43.0587407524486,-459.1231460284603,897.1707973670929
38.68742129065482,-474.6707591277348,885.383897661281
31.553180749797335,-470.6061703028048,900.9621022469447
24.500415534356794,-454.934151825547,916.5015576165154
55.491222792696796,-431.9599455471543,916.889049777447
47.86547903718395,-400.9850458617367,912.7449230879047
36.52256377050267,-369.9459040549016,912.4706194266138
37.42185149872791,-338.8251849510282,932.002263769993
45.31873779527158,-292.49437881437603,928.0396465663607
34.5488010686626,-276.7591379319136,947.4479052479696
46.6809766841888,-234.22371553996524,955.3354101553538
23.805376963591034,-218.5364013195128,958.8646479684704
28.558478175523756,-206.7546001947658,982.4435459611591
4.891945771491795,-187.40344562108368,962.4010237950779
1.338377529533531,-183.43674955259954,970.1834979325256
-6.504892088531763,-183.41125664727508,966.141342864281
-14.238603396674709,-206.5302626279107,970.0285010681528
-26.20803230460963,-206.5435189386794,958.0753876196255
-14.620487118434943,-202.7644506533832,958.2365027812762
-21.75482963091372,-198.6988421122402,973.8136876507268
-34.05087364186548,-225.827372242305,958.0223623765507
-37.27694982486374,-233.36409477242486,977.6233474224125
-37.740002957177026,-260.5140389429622,969.8582084605856
-44.62879780557072,-260.24891272758794,993.3025039131612
-38.094660256050744,-252.8784039401835,958.0539735791531
-38.28544915949892,-260.65068091550125,954.1525393482995
-30.14260731238497,-237.42970331356787,962.0451428367487
-41.2663855648973,-252.67853956243982,977.6284460034774
-22.517271443357316,-249.09525679003536,962.1991199849083
-33.39550203178456,-268.14457536467603,985.6474943023359
-38.61247214900094,-268.4566085258473,946.3241779812679
-23.08953618208053,-272.41004828356273,950.4948172923476
-51.127347259257746,-268.606506809155,918.6653954204545
-35.931434281839365,-280.3658741772165,915.0076733645028
-28.906303375770527,-280.5963300413495,895.4903050481053
-32.35070079996737,-280.4637669336624,907.2129626324995
-40.930083157857176,-288.3471929761947,883.5626845049023
-21.553639622093176,-292.3302045040865,887.7914476401219
-25.352286458678552,-303.8723723187837,891.6979804520403
-12.91898864545997,-315.32888397159076,919.3955122289468
-28.905487602800143,-319.2150224592496,903.4706041308706
-27.951033227452804,-318.9753891491998,930.9560349354775
-4.694294177930282,-299.8108426424926,931.2395160426854
-12.019293030749544,-303.5175110766674,942.9162863974957
-3.6302712954984635,-322.7157082184028,966.6542601194088
-3.6574569297364548,-326.58451153044115,966.6675164301777
0.3043577572361612,-291.8295238435144,962.6845049022858
-2.5406637332830275,-264.5133659302616,986.0971891522591
1.5847001779404792,-225.85592429626837,986.0288681659895
-1.3422932397913663,-190.83683011018036,1005.4901520906733
10.463206089745226,-175.41668153752812,1009.5394451724086
18.03378319813596,-175.5104954291221,1005.7287656845102
14.670963070977349,-163.77254210153316,1017.4126740528113
2.837839629231185,-163.75112806106063,1009.3864877404619
2.810256305670132,-148.31058516414882,1005.4085747936351
14.125108982170264,-144.59983786512214,997.7168553991426
17.733476773413962,-160.13827351847982,993.8990378977531
28.148246343042736,-148.92955290542642,958.6953750771162
28.666466122478116,-152.66069452871267,974.414300500171
28.748451306001545,-160.36465051776094,978.3657008254604
16.533882620466727,-175.88677071171097,962.5366460514041
23.722983893582416,-191.52411883772749,950.9230981017984
28.122243579611798,-210.72639484431485,970.6770405796068
27.33175957131131,-226.37190070003518,951.0944104255786
8.228396037382797,-241.62991439482394,958.7096511040979
15.717395848735299,-253.3301382225327,954.9367011160795
19.489326120540653,-264.9651002126109,955.0325544400994
-3.740237491906003,-280.26186312349273,954.7358170221229
-0.10509705149057018,-272.6231689720751,946.9156133847952
-12.046927340121245,-288.0769681797556,938.9393931668818
0.11322418970800427,-280.29143489366913,954.7939408462626
-0.7320716044724754,-284.36520116451595,931.2466540561763
-12.15573106004599,-303.55116171169567,938.9903789775306
-0.5137503632739009,-292.03448680232293,939.1249815176436
4.0486608576833065,-288.02496265289375,958.8034649956918
11.810353178710367,-299.65584577811995,962.8833495638165
8.583471419903843,-268.57387589033976,974.5040355269131
12.572896962775262,-249.2604508165378,974.4989369458482
8.337556657982084,-245.46404735562095,962.6488148348316
8.855368550932276,-229.88686248617014,974.3775907165036
1.1484553848663919,-229.8277189458174,974.2623627844372
20.306628665242467,-226.1414448359022,970.6117787419762
32.19407238965396,-218.4252522522982,978.6134918652141
24.105275501827844,-214.599277021205,966.7052459300578
32.49397092789077,-214.4881279539904,986.4540898268012
19.76077457643538,-206.96874059949118,950.9159600883075
12.681190824593516,-214.47589135943468,970.4588213100295
16.234799855200297,-218.44258742791882,962.6753274563689
20.006730127005657,-230.07856913420997,962.771180780389
39.16485242157108,-226.39331474050775,959.121616454141
19.161385386446952,-234.15233540505682,939.2249137065155
7.874126230670006,-253.30464531720824,950.894546047835
11.236558865667686,-245.7332524358471,935.2204881381512
10.882309453279154,-257.40798335823143,927.4053830818884
-3.850193491151413,-237.80903774479566,942.8173739248368
10.936252440945685,-230.36103052520485,923.3907603513943
3.2573406820881754,-265.051776090714,931.2415554751115
11.91874901214992,-264.8723060372299,958.843233927998
-11.665451504846203,-272.53343394533306,946.7422616285888
7.792151244308709,-245.60068932816003,946.9421260063325
-7.15825485767311,-237.64180428586727,958.4659389291961
4.183803847389272,-230.06225367480232,950.7609632239348
-11.175273921267712,-241.5157061789704,954.4941442796471
8.58307373058078,-249.2645296813897,970.5149057017434
-14.701248642502792,-252.9885332911851,966.2535116477085
5.438554450296483,-245.1948422753948,990.0771415315119
-10.302396842958606,-252.88146308882241,982.0173045841343
5.274614674736022,-229.78896972972424,982.17332116472
12.763176008116943,-222.17882763226996,974.410221635319
4.9475305022612215,-237.5948973400703,974.3449597976884
5.029107799299456,-225.9884874039555,974.3072302978084
4.129422381751159,-237.79986029887885,950.7854364130465
8.77340376173311,-222.18392621333484,970.4261903912142
0.05804173698459719,-249.41034909984552,946.8391346688218
8.391540434297136,-218.4170945225944,958.6331723881245
8.391938123620198,-237.72644073154444,962.6233219295073
8.882564382332397,-226.01805917413185,974.365354121948
16.698668760483958,-229.91235539149457,978.4197457847482
8.77340376173311,-222.18392621333484,970.4261903912142
12.681598711078708,-233.78523756838476,974.4479511351992
23.914894484864867,-241.68090020547285,966.7939612405868
15.826199568660044,-237.85492497437966,954.8857153054305
15.935309203448682,-241.68905793517666,958.8248790361644
30.93971947606981,-222.6020098606558,943.2874630990195
19.625254291730613,-245.6221033686325,954.9693320348948
20.606833118343168,-241.5136667465445,982.4425262449462
20.524949906441037,-233.81073047370919,978.4901062034437
23.996879668388292,-249.3838364783081,970.7453615658764
24.81459009957529,-229.8695273105495,990.3147354091358
23.83301127296274,-233.97694421642458,962.8415411990844
16.044520809858618,-245.52421061218666,962.7640427668981
12.327349298690176,-245.45996849076906,966.6328460789364
12.654474259813496,-237.654040880423,974.461207445968
8.664640830456884,-237.65811974527494,970.4761564856502
20.22505136820423,-237.747854772017,970.6495082418564
12.654066373328304,-218.34469467147298,970.4710579045853
4.647244471863481,-222.22267542942805,962.5152320109314
4.647244471863481,-222.22267542942805,962.5152320109314
4.347345933626673,-226.1597997277358,954.6746340493441
15.880550442811769,-230.11731835030312,954.8602224001062
-6.831170685198311,-229.83587667552123,966.2932805800148
-14.783233826026217,-245.28559701834982,962.302111322419
8.473505223496302,-226.12105051164266,962.585592429627
4.511285709187134,-241.56567227340634,962.5784544161361
16.098463797525152,-218.47725777916006,958.749420036404
0.1396113861512341,-237.80393916373075,946.8014051689416
0.3575339183105342,-226.16387859258768,950.6895830890263
11.536049517419302,-222.4867819285893,939.0709365583559
7.928099809822927,-226.2576924841817,946.878903601128
15.607878327461469,-230.18563933657268,947.0073878439631
12.463277469880135,-226.11595193057772,966.5696236737316
0.7941764007076831,-241.50143015198876,966.4472577281743
0.9577195066612962,-237.5989762049222,970.3609285535837
13.36338097107575,-233.61392524460447,994.0805473836632
8.528284378457476,-237.69279009651618,966.5502490656851
0.19399387150556002,-230.06633253965424,946.7759122636172
23.150821126480505,-214.83891033125485,939.2198151254506
12.327349298690176,-245.45996849076906,966.6328460789364
19.843575532929187,-253.29138900643954,962.8476594963623
12.272998424538454,-253.19757511484553,966.6583389842608
15.662229201613194,-222.44803271249614,946.9818949386388
11.699611997980963,-218.58432798152276,942.9856270999782
7.682990623709423,-241.766556367363,943.0029622755989
20.116247648279487,-253.22306802017002,970.7004940525054
20.470904947153212,-260.85768330673574,982.5057486501507
23.50629419832461,-261.0922180357207,959.0043490896484
31.403894296217366,-253.3801043169686,963.0210112525685
12.490911779251837,-241.55649482748956,970.5465169043457
12.245364115166751,-237.75703221793376,962.6814457536469
12.763583894602133,-241.48817384122,978.4003711767016
12.272590538053262,-233.88822890589552,962.6681894428782
4.456904243549021,-249.30327889748287,962.6029276052475
11.836355942141303,-237.85900383923155,950.9016840613259
8.528284378457476,-237.69279009651618,966.5502490656851
0.8213661138105267,-237.63364655616346,966.4340014174056
4.510888019864072,-222.2563260644563,958.5883048747534
-14.510459739054625,-245.2172760320803,970.1549458785622
-14.783233826026217,-245.28559701834982,962.302111322419
8.41953164434338,-253.16800334466922,966.6002151601211
11.836763828626495,-257.1683500481816,954.8908138864956
-7.267007591787206,-253.1170175340203,958.5159050236321
7.9285076963081185,-245.5670386931317,950.8690531425106
-7.839608836860703,-257.1224628185976,942.8224725059017
-0.07830869868915483,-249.44501945108678,942.9132272488567
7.682990623709423,-241.766556367363,943.0029622755989
-7.839608836860703,-257.1224628185976,942.8224725059017
3.965880295513759,-241.70231424594536,946.8717655876371
8.228396037382797,-241.62991439482394,958.7096511040979
-3.4139588952394555,-233.8372430952466,954.5838793063891
-11.066062314857778,-245.34983913976745,958.4333080103809
11.700019884466155,-237.8936741904728,946.9747569251479
8.310371023744093,-249.33285066765924,962.6610514293874
4.920344868023229,-241.46370065210854,974.3582161084571
-14.674022219616283,-249.1207496953598,966.2412750531529
16.67185022408264,-253.09050491248288,982.4221319206866
4.811184247423943,-237.62854797509857,970.4190523777235
1.3671743153880276,-256.8053310763615,986.1298200710743
28.313440369545162,-222.26346407794716,978.56760463563
21.097112673542956,-210.49593898018185,990.1944088960043
16.34441934809543,-241.58708631387887,970.6046407284854
20.197417058832528,-222.30731187510517,966.6726150112426
16.344011461610236,-222.27774010492885,966.6144911871028
12.381394257978005,-218.41301565774248,962.6182233484424
19.733956040034062,-230.1468901204795,954.9183462242459
7.928099809822927,-226.2576924841817,946.878903601128
19.079400202923527,-226.44939913222152,935.2735133812262
4.047457592551993,-230.09692402604355,946.834036087757
-0.13309234040166623,-237.8722601500003,938.9485706127987
4.047855281875054,-249.40627023499363,950.8241856291396
-16.20104724855073,-253.36480857377393,923.0613920146025
-7.539720495786024,-253.18533852028983,950.663070467489
3.884313195637654,-253.30872418206013,946.9094950875171
0.7669866876048397,-245.370233464027,966.45949432273
-3.713847236314134,-237.77436739355443,946.7432813448019
-7.239821957549215,-249.24821422198207,958.5036684290764
3.965880295513759,-241.70231424594536,946.8717655876371
15.607878327461469,-230.18563933657268,947.0073878439631
3.8839155063145934,-233.99937797311011,942.9203652623477
30.80379130487986,-241.94500670463412,943.3506855042243
7.65539710298624,-226.32601347045122,939.026069044985
31.266742465571834,-214.79608225030978,951.1148047498382
12.326941412204985,-226.15062228181898,962.6426965375538
11.863888279891707,-253.29954673614338,954.8785772919398
8.064456261822336,-226.22302213294043,950.805830737306
4.756802781785829,-245.36615459917505,970.4435255668349
-3.1684418226407596,-237.63772542101535,962.4499701733008
19.27059699285689,-237.9874880820668,943.1640774372494
4.484100074949142,-245.43447558544463,962.5906910106919
24.5691444071115,-226.06904498478076,982.4496642584369
12.845569078125559,-249.19212983026827,982.3517715019912
12.818036740375156,-233.7515869333565,978.3748782713773
12.845161191640369,-229.8827836213182,978.3616219606085
21.12464501129336,-225.93648187709363,994.1713021266182
16.75301963463568,-222.17474876741804,978.3942528794238
19.43364961531206,-214.77466820983722,943.088618437489
11.917933239179538,-226.2525939031168,950.8639545614457
12.40851870924322,-214.5442123457042,962.6049670376735
19.70683158876885,-234.01569343251774,954.9305828188017
8.391938123620198,-237.72644073154444,962.6233219295073
26.731962494837692,-234.24614929665077,935.414234218617
19.651970856510637,-222.44395384764425,950.9669458989564
8.364742292220075,-241.5952440435827,962.6355585240628
11.972691999816453,-237.82535320420328,954.8275914812908
4.702013429662525,-233.79441501430153,966.4798886469897
0.8485558269133702,-233.7648432441252,966.4217648228498
16.289558615837215,-230.01432701279236,966.6399840924272
11.945465576929942,-241.69415651624158,954.8408477920595
8.41912375785819,-233.85865713571914,962.6110853349514
8.11923541678351,-237.79578143402696,954.7704873733641
16.23520774168549,-237.7519336368689,966.6654769977515
4.920344868023229,-241.46370065210854,974.3582161084571
16.07123737463864,-222.34606109119835,958.7616566309598
20.306628665242467,-226.1414448359022,970.6117787419762
23.614690031764162,-226.3076585786176,954.963213737617
8.964131482208503,-214.4116492380171,974.3276246220678
12.59971549917658,-226.08230129554946,970.4965508099096
30.88536860191809,-230.33859676851932,943.3119362881312
16.507471970550597,-218.3742664416493,970.529181728725
16.344011461610236,-222.27774010492885,966.6144911871028
9.40037627528259,-210.44087430468105,986.0941300036201
12.87238761452688,-226.01398030927996,978.3493853660527
8.146421051021502,-233.92697812198867,954.7572310625955
20.524949906441037,-233.81073047370919,978.4901062034437
16.289558615837215,-230.01432701279236,966.6399840924272
-7.213034012634284,-226.07006470099375,954.5012822931379
15.716580075764915,-214.7104260884196,946.9574217495272
19.76159034940576,-245.58743301739128,958.8952394548597
4.648039850509604,-260.8413678473281,970.4945113774838
4.893149036623108,-245.33148424793382,974.3704527030129
-6.476890681323389,-218.16114575313694,974.1083856362775
4.292566778665498,-214.58704042664928,950.7099774132861
12.108620171006411,-218.481336644012,954.7643690760863
8.28236961653572,-214.5829615617974,954.6940086573907
20.170190635946017,-226.17611518714347,966.6858713220113
4.729209261062647,-229.92561170226327,966.466632336221
12.626839950441795,-222.21349798351122,970.4832944991409
20.906323770094787,-218.26719623928665,986.2929746651508
20.49731559706934,-218.3701875767974,974.5132129728298
16.56233270280881,-229.94600602652284,974.4938383647833
12.463685356365325,-245.4252981395278,970.5597732151143
24.05092462767612,-222.33688364528155,966.7307388353822
16.91699000168253,-237.58164102930158,986.2980732462157
1.2304201740655578,-237.53065521865267,978.2137631097266
8.609861675495711,-226.0863801604014,966.5114998495919
20.115839761794295,-233.91372181121994,966.7103445111227
20.49731559706934,-218.3701875767974,974.5132129728298
12.354167835091495,-222.28181896978074,962.630459942998
4.265778833750568,-237.7651899476376,954.7123635492243
0.41231205355549555,-237.73561817746122,954.6542397250846
8.337556657982084,-245.46404735562095,962.6488148348316
15.662637088098386,-241.75737892144622,950.9720444800214
12.408926595728412,-233.85355855465426,966.5951165790563
16.37154379936064,-237.71828300184063,970.5924041339296
7.95569333054611,-241.69823538109347,950.8568165479547
11.481698643267581,-230.22438855266583,939.0964294636805
8.146421051021502,-233.92697812198867,954.7572310625955
8.719022296094996,-229.92153283741138,970.4516832965387
5.192649885536856,-222.08501374067598,978.2209011232176
20.633651654744487,-218.33551722555615,978.4401401090078
16.453121096398874,-226.11187306572583,970.5546746340494
16.616683576960533,-222.20839940244633,974.4683454594588
28.1498778889835,-226.16693774122663,974.6539338102207
4.674827795424534,-237.66321832633983,966.4921252415454
8.527886689134414,-218.38344388756613,962.5600995243025
15.880550442811769,-230.11731835030312,954.8602224001062
8.719022296094996,-229.92153283741138,970.4516832965387
7.900914175584935,-230.12649579621993,946.8921599118967
24.05092462767612,-222.33688364528155,966.7307388353822
20.49731559706934,-218.3701875767974,974.5132129728298
16.180448981048578,-226.18019405199536,962.7008203616934
4.9475305022612215,-237.5948973400703,974.3449597976884
23.4234932418308,-214.77058934498532,947.0726496815938
16.125996135275557,-233.9178006760719,962.7263132670179
8.937343537293572,-237.5897987590054,978.3300107580061
12.463685356365325,-245.4252981395278,970.5597732151143
15.93490131696349,-222.37971172622662,954.8357492109947
3.529635502439672,-245.6741088954944,935.1052602060847
0.9853109879520531,-253.03951910183397,974.3378217841976
19.70683158876885,-234.01569343251774,954.9305828188017
11.481698643267581,-230.22438855266583,939.0964294636805
11.727144335731367,-234.02487087843454,946.9625203305922
-3.1684418226407596,-237.63772542101535,962.4499701733008
7.873718344184814,-233.99529910825817,946.9043965064523
9.21004624413026,-237.52147777273586,986.1828453141493
4.320150102226551,-230.02758332356106,954.6868706439
16.180856867533766,-245.48954026094543,966.6909699030762
20.115839761794295,-233.91372181121994,966.7103445111227
8.555480209857599,-233.8239867844779,966.5369927549165
12.70882513396522,-229.91643425634652,974.4357145406434
11.999918422702963,-233.95654989216504,954.8153548867351
16.589457154074022,-226.0772027144846,974.4805820540146
8.064456261822336,-226.22302213294043,950.805830737306
5.6288844814488135,-218.11423880733994,989.9884262209829
-3.1684418226407596,-237.63772542101535,962.4499701733008
-10.65746202831752,-225.9375015933066,966.2229201613193
-14.674430106101475,-229.81038377019678,962.2511255117702
-18.363967307898214,-245.18770426190392,970.0968220544224
-14.91997777018656,-226.01092116064103,954.3850346448585
1.1484553848663919,-229.8277189458174,974.2623627844372
-3.3047982746401683,-237.67137605604364,958.523043037123
4.919947178700168,-222.15333472694553,970.3680665670745
8.227988150897605,-222.32056818587387,954.7195015627152
0.4666945389098215,-229.99801155338474,954.6297665359732
28.34056482081037,-218.39568048212183,978.5553680410742
34.82035149617862,-218.7627783187939,943.3323306123907
31.29396888845835,-210.9272789382715,951.1025681552825
49.82557754177013,-238.2934029459602,935.7731743255853
58.050710487271395,-242.0847078258121,951.6083473969196
61.795006449705056,-238.28014663519147,947.7262877741125
65.81238241397419,-253.7166106672513,955.6882319650442
73.79196769539038,-253.70743322133455,963.6573141694668
61.6589763068938,-257.6241631953828,947.7895101793172
46.954158657645586,-253.4647407626458,967.1783942528796
50.343695349584216,-242.0255642854594,951.49209974864
46.76296186771222,-241.9276715290135,959.2878301968564
42.091437952817735,-242.10306271764574,935.6701829880744
30.885674516781986,-249.6479429774694,947.3020858295137
38.401900751020996,-257.4793634931399,943.5168992469396
30.6677611620686,-261.28902326482546,943.413907909429
19.325355753493803,-249.55922766694033,947.1287340733074
-3.850193491151413,-237.80903774479566,942.8173739248368
-7.185848378396294,-222.2012613889555,954.4880259823692
-23.03589910927789,-226.05374924158608,942.4900450204709
-11.066470201342968,-226.04049293081738,954.4431584689981
-18.39149964564862,-229.74716136499214,966.1199288238083
-29.979146803444607,-233.52622965028834,965.958813662158
-29.81558432288295,-229.62377570322184,969.8724844875672
-40.85809119322093,-213.95685580702892,981.4289283292461
-24.76258457271342,-213.90485028016707,1001.2930001580562
-40.14918448195868,-209.9167401712104,1001.0482682669414
-35.34122253776775,-209.7076983475499,1028.5877440308363
-35.232112902979104,-213.5418313083469,1032.534045775061
-47.77452035098632,-198.25118669474287,1000.8953108349947
-20.964243650991932,-183.05333625651983,993.396317804755
-34.10644817547277,-175.63694023953136,946.0784263739403
-45.93913313924735,-194.92487240800887,942.0423896029736
-26.726659970530207,-183.5020113902301,938.3663126551882
-9.204723325498515,-180.22668291414502,887.597701559656
-24.672543631107466,-207.15432895025316,891.3818684260171
-24.753713041660507,-238.070085095318,895.40974746728
-13.192884420265841,-257.4691663310101,899.5722290486559
-4.640310401615231,-272.76388980946604,927.2248933121913
-28.005791988089722,-307.4036495643263,926.9913782994195
-5.1029454502811875,-319.22318018895345,923.449903891747
-9.310671840026922,-330.86731962494844,915.5766750113445
-28.90467182982976,-357.83371487714976,911.4498834974227
-5.156123650787986,-384.8888254398801,935.4448257050063
-25.650145564489403,-404.35724737805475,903.8060907649402
-1.874850229181219,-408.23318870358383,923.7986468365855
2.6875538537624983,-404.22366455415465,943.4761105984206
-1.9024437499044018,-392.79264580667206,919.8217536059716
14.519841128214019,-365.6253664605141,943.5230175442176
15.473479730590977,-326.76704073256417,963.0301886984854
7.275542616489832,-319.106932540674,947.1827790325955
2.68514732349987,-288.36656758424135,919.5382724987637
3.748364630123437,-272.65274074225147,946.9727174927219
-11.01089566773567,-276.230924933591,966.3870944716086
-11.665859391331395,-253.224087736383,942.7521120872063
-7.7852273712225895,-249.3848561945211,942.7969796005773
-15.76481265263877,-249.3940336404379,934.8289171123678
-22.190248453855293,-241.2893291796893,970.026461635727
-7.076279871311815,-245.3457602749155,962.4173392544857
-18.718216720286748,-256.86243518428824,962.2817169981595
-38.33980003365064,-268.3882875395778,954.178032253624
-21.862715606246784,-252.79274777829332,981.8439528279282
-26.561058057542592,-276.14628848791386,962.2297114712976
-11.883772746044778,-264.8641483075261,938.8639341671214
-15.10984892904305,-272.4008708376459,958.4638994967701
-11.420005812382415,-276.33391627110177,954.6073327792876
-15.327762283756433,-284.04093140878894,954.5747018604723
-12.40158463899497,-280.4423528931899,927.1341385692363
-20.462849189070685,-292.05692055900846,919.203805580907
-1.4410221635318892,-288.4053168003345,911.6273141184809
-5.512799987763406,-280.7064593923511,903.6908628328738
-28.906303375770527,-280.5963300413495,895.4903050481053
-19.78147481555883,-272.57626202627813,934.8462522879884
-19.372364670912088,-272.4742904049803,946.6260139803094
-13.473612293698665,-271.9909449200288,1005.5819265498413
-28.723978116890073,-267.96816445983086,1009.2651415111176
-21.398948672584424,-264.2625157418691,997.5883711563073
5.7656386227712835,-237.38891466504873,997.9044831823304
-1.8593097540954353,-245.0327073975313,1001.7406555755534
-1.7777426542193309,-233.4273171776295,1001.7029260756732
-2.595850774729393,-233.63228013643806,978.1434026910312
12.70882513396522,-229.91643425634652,974.4357145406434
7.682990623709423,-241.766556367363,943.0029622755989
10.936660327430877,-249.67037673415493,927.379890176564
6.865280192522421,-261.2808655351216,923.4335884323394
-9.311875105158236,-272.9392809980983,903.6072461034095
-21.553231735607984,-311.6395507130366,891.7805774652916
-18.02684912788771,-319.47606980977196,884.0113596386127
-34.285612314092994,-342.73987549265047,864.222746809563
-30.89515787756268,-369.9193914333642,856.5157316718758
-23.106259527973368,-377.6814712465521,860.5833796454447
-42.50952160013869,-396.87660923964864,860.3580223623766
-30.51245838283206,-412.3038958257917,876.2880290415179
-14.30774015591461,-416.0870429759399,900.0912646010615
-41.03684744535597,-400.3691372690981,903.5623785900385
-33.08438661520499,-404.22876313521954,911.5436973890168
-20.106560344256195,-376.92892068137445,946.967618911657
-30.576904447492264,-337.94822900786716,970.2273457296835
-7.102262240418493,-307.1426022138039,974.3990047569763
-12.873917188846345,-264.11669632341324,1021.2661816216548
-5.031412357940785,-225.52247709462458,1017.325998174708
11.854302947489714,-190.51561950309232,1052.7856097648025
26.994641391300803,-152.08455486838017,1037.1839517062404
13.552130442097965,-129.2959369407494,978.0332733400295
21.040314480480085,-102.37644863434508,966.281043985459
27.76554684831212,-106.54402879678587,938.923077707474
31.455899823079243,-129.78642043919177,939.0566605313742
4.673226840970159,-160.42481377432662,950.5325467922279
1.3111918952955395,-187.3055528646378,970.1967542432941
-14.4837431742746,-222.03912651109198,966.1525597426237
-2.5138757883680976,-241.33521640927336,982.0948030163206
-18.663457959649833,-268.43417476916176,966.2463736342178
-18.69027649605115,-291.61232429015007,970.248759770156
-8.492971606002051,-311.3530104571898,935.1460488546039
-4.775463588483325,-330.72659878755746,935.2673950839483
-1.0587509496107235,-311.48047498381203,927.4094619467403
2.849494985545523,-323.0828060550749,931.4312226907252
-5.048563984643074,-311.4855735648769,923.4244109864226
-11.773847338285757,-307.3179934024361,950.7823772644075
-4.530752091692882,-295.9073689792131,935.1531868680946
-4.34002437121749,-288.1361117201083,939.0546210989484
-4.5583456124160655,-280.46682608230134,931.1762936374807
-14.07300148368709,-299.1745397255944,993.8908801680494
-3.3583741644700287,-284.0276750980202,966.5278153089997
5.057496698668761,-280.0477227187674,986.2634028949744
7.928905385631181,-264.8763849020818,954.8592026838932
5.029505488622517,-245.29783361290555,978.2973798391907
15.58065190457496,-234.05444264861092,947.0206441547319
19.76118246292057,-226.27808680844123,954.9061096296903
11.835948055656111,-218.54965763028153,946.9115345199432
8.527886689134414,-218.38344388756613,962.5600995243025
16.698668760483958,-229.91235539149457,978.4197457847482
0.7941764007076831,-241.50143015198876,966.4472577281743
-6.885144264351232,-256.8828295085478,970.3079033105089
8.474310799304554,-264.73974292954273,970.5648717961792
-7.484533454339658,-284.0664243141134,958.6168569287169
4.048252971198116,-268.7156164439437,954.8133154543091
12.027858646938558,-268.7064389980269,962.7823976587317
-2.9497126949569936,-264.61635726777246,974.318447176151
-14.700840756017602,-272.2988992163481,970.2436611890912
-3.4951181086303684,-264.75299924031145,958.611758347652
-3.331586219555098,-260.8495255770319,962.5254291730612
-14.728373093768006,-256.85733660322336,966.2657482422643
-19.018115258523554,-260.799559482596,954.4411190365723
-19.045341681410065,-264.6683627946343,954.4543753473409
-7.594091764262007,-260.92294514436634,950.6885633728134
-3.82261016759036,-253.24958064170744,946.7942671554507
-7.430559875186736,-257.01947148108684,954.6022341982227
-4.476768315377831,-268.8614358623995,931.1385641376006
-3.84939811250529,-276.42773016269575,950.7966532913891
-11.910999168931287,-268.7329516195643,938.876170761677
-15.191834112566475,-264.6979345648107,954.5114794552677
-23.416967058067744,-260.9066296849587,938.6773261001465
-15.2738192960899,-256.9949982919754,950.5600791299781
-11.147231725410819,-276.2655952848323,962.4601673354307
-6.912340095751353,-260.75163282058605,970.3211596212774
0.22198304211937822,-264.81724136172903,954.7429550356138
-3.113662667679585,-249.20946500588886,966.4146268093591
-7.457745509424728,-260.8882747931251,954.6144707927785
-3.2224255989558115,-264.68467825404196,966.4645929037949
-7.757633850499407,-264.82539909143287,946.7748925474041
-11.201990486047734,-264.69283598374574,958.4965304155854
-3.7678310126291854,-264.82132022658095,950.7589237915089
-3.4951181086303684,-264.75299924031145,958.611758347652
-11.31120209245767,-260.85870302294876,954.5573666848518
3.9114988298756463,-249.4399208700219,946.8972584929616
0.11282242152009096,-260.9820886847191,950.80379130488
7.983286851269293,-257.13877827800525,954.8337097785688
7.7649656100707185,-249.46949264019827,946.9553823171012
7.656202678794492,-264.9447058883513,947.005348411537
-8.003150923098103,-261.02491676566416,938.9088016804924
-0.37780179775968353,-272.6914899583446,939.0617591124391
0.4403073424665916,-272.4855072833231,962.6212824970811
4.157423788959533,-272.5497494047407,958.752479185043
-11.501889024284544,-268.6309799982665,950.655932453998
-11.556341870057564,-276.3675669061301,950.6814253593227
-11.747436688369628,-264.8304976724978,942.7898415870864
-4.040523522303744,-264.8896412128505,942.9060892353659
-0.40499151086252705,-276.5602932703829,939.0750154232078
7.411093492680989,-280.4535697715326,943.129407086008
-8.111913854374329,-276.50013001381717,938.9597874911414
-16.064303304390393,-272.64050414769576,930.9774489759502
-0.5141521314618143,-272.7251405933729,935.1358516924741
-1.659741094053525,-261.4266849535775,899.7588371156309
-7.512126975062841,-268.62588141720164,954.6399636981029
-7.4849311436627195,-264.7570781051634,954.6277271035473
-7.075474295503562,-283.96445269281566,970.3966186210379
-3.8222022811051692,-272.55892685065754,950.7844166968333
-19.645138757883682,-272.54261139124986,938.7731794241664
-8.13909948861232,-280.36893332585544,938.9720240856972
7.192772251482413,-272.7853038499386,935.2510796245406
-16.22786578495205,-276.54295809476224,927.0637781505409
3.0122314959746705,-280.5606399738953,927.3656141495824
3.8847108849607155,-272.61807039101024,950.8996446288999
-11.801787562521353,-272.5681042965743,942.8153344924109
-8.875630312084148,-268.9685060647622,915.3747712011749
-7.948361570974798,-272.59767606675064,942.8734583165507
-20.02692050802262,-268.77577970050936,926.9811811372895
-4.286040594902439,-261.08915888708174,935.0399983684542
-23.225872239755677,-272.443698918591,946.5678901561696
-19.481576277322024,-268.63913772797036,942.6868502495756
-7.757633850499407,-264.82539909143287,946.7748925474041
-11.910999168931287,-268.7329516195643,938.876170761677
-23.471317932219467,-268.64423630903525,938.7028190054708
0.8765511158244661,-268.51473234998707,974.3888075948465
-14.809950390806241,-268.46374653933816,966.3044974583574
0.5490661948779656,-257.01131375138306,962.5713164026453
-15.819265498411793,-257.1316402645144,934.8533903014793
7.437881437595918,-257.2754202505443,939.1270209500698
0.7945802083280225,-260.81179607715177,970.436387553344
-3.031687681318289,-256.91240127872413,970.3660271346486
-10.493083774785477,-260.6537400641402,978.1158703532809
0.27636246832506517,-257.07963473765255,954.7174621302892
0.3851223404526521,-241.60442148949952,954.6674960358533
-7.539720495786024,-253.18533852028983,950.663070467489
-19.56356146084545,-260.93620145513506,938.7354499242862
-3.7678310126291854,-264.82132022658095,950.7589237915089
0.49468676867227857,-264.74790065924657,962.5957895917568
19.843575532929187,-253.29138900643954,962.8476594963623
-15.10984892904305,-272.4008708376459,958.4638994967701
-8.548148450286288,-280.4719246633662,927.1922623933762
-15.546083524955007,-276.372665487195,946.6963743990049
4.021067336960125,-272.58441975598197,954.8265717650779
-3.4951181086303684,-264.75299924031145,958.611758347652
11.78200506798958,-245.59661046330808,950.9271769666502
-3.4407468401543855,-257.0153926162349,958.5862654423275
4.975124022984404,-253.03544023698208,978.3218530283024
4.593260695548429,-249.2686085462416,966.5298547414255
-0.13268853278132697,-257.1816063589503,942.9387201541813
-7.594091764262007,-260.92294514436634,950.6885633728134
-15.328170170241624,-264.73158519983895,950.5855720353028
4.047855281875054,-249.40627023499363,950.8241856291396
-4.258854960664448,-257.2203555750435,935.0277617738984
-3.8222022811051692,-272.55892685065754,950.7844166968333
-3.9041772674664643,-264.8549708616092,946.8319966553308
8.22879372670586,-260.939260603774,962.6987809292674
0.27636246832506517,-257.07963473765255,954.7174621302892
4.238990888835637,-260.94333946862594,958.7147496851628
0.521876481775122,-260.88011706342127,962.583552997201
7.956091019869171,-261.0075815900435,954.8459463731244
8.58307373058078,-249.2645296813897,970.5149057017434
9.01930832649274,-245.29375474805366,982.2814110832956
-3.7954143361902384,-249.3807773296692,946.782030560895
0.1943925805448344,-249.3756787486043,950.7660618049997
12.000734195673346,-272.5752423100651,962.7946342532873
-7.103067816226745,-268.5239097959038,966.419725390424
7.983286851269293,-257.13877827800525,954.8337097785688
-4.477176201863022,-249.55208965344949,927.149434312431
-11.775070997741329,-249.38995477558598,938.8129483564725
-8.303447150657973,-245.65269485502188,927.0780541775225
-8.112311543697391,-257.1907838048671,934.9696379497586
4.484497764272204,-264.74382179439465,966.5808405520745
-3.8222022811051692,-272.55892685065754,950.7844166968333
-6.6668230231526575,-264.5521151463548,978.1872504881892
4.975124022984404,-253.03544023698208,978.3218530283024
8.146828937506692,-253.23632433093874,958.7473806039781
11.645974925178324,-264.9406270234994,950.9903993718549
3.884313195637654,-253.30872418206013,946.9094950875171
0.3583364349701479,-264.78257101048786,958.6698821717916
4.2661765230736295,-257.07453615658767,958.702513090607
15.635410665211873,-245.62618223348446,950.9842810745771
4.647642161186543,-241.53202163837807,966.5043618361012
4.920344868023229,-241.46370065210854,974.3582161084571
-22.43528625983389,-256.79819306287067,966.1505203101979
-4.31322622914043,-264.95796219912,935.0522349630098
-19.481576277322024,-268.63913772797036,942.6868502495756
-23.225872239755677,-272.443698918591,946.5678901561696
-11.44753815013282,-260.89337337419,950.6304395486737
-2.486282267644915,-256.77575930618514,986.0727159631476
-4.040523522303744,-264.8896412128505,942.9060892353659
4.511693595672325,-260.8750184823564,966.5675842413058
-3.82261016759036,-253.24958064170744,946.7942671554507
15.25352694345164,-241.86037025895698,939.1922827877004
-2.868145595080889,-253.00994733165766,974.2796979600579
-0.3234213518377836,-264.95388333426814,939.0372859233277
12.436560905100112,-249.29410145156606,970.5720098096701
5.111470277821683,-253.00076988574082,982.2487801644803
20.47049706066802,-241.54833709778572,978.5155991087681
5.87479924337057,-241.22406734205876,1001.8436469130643
-3.004502047080298,-253.04359796668592,970.3537905400927
-3.3863653745162723,-249.27778599215844,958.5617922532161
16.180856867533766,-245.48954026094543,966.6909699030762
0.6582268154772527,-260.84544671218003,966.510480133379
16.153630444647256,-249.35834357298367,966.7032064976318
-11.883772746044778,-264.8641483075261,938.8639341671214
4.620854216271612,-264.7101711593664,970.5067479720394
15.171949646413404,-253.46678019507175,939.2300122875804
-11.801787562521353,-272.5681042965743,942.8153344924109
-11.992576465969522,-280.3393615556791,938.9139002615573
-16.22786578495205,-276.54295809476224,927.0637781505409
-16.3642018426272,-276.57762844600353,923.1378707305757
-15.573309947841517,-280.2414687992332,946.7096307097736
-19.617912334997172,-268.6738080792116,938.7609428296106
-11.420005812382415,-276.33391627110177,954.6073327792876
-11.420413698867605,-257.0245700621517,950.618202954118
-0.4325819724370708,-261.11873065725814,935.0981221925939
0.08563270841724749,-264.85089199675735,950.8170476156487
-7.621287595662127,-264.7917484564046,950.7007999673692
3.747966940800376,-253.3433945333014,942.9835876675522
8.119633106106571,-257.105127642977,958.7596171985338
-3.5766954056686027,-276.35940917642625,958.6494878475321
7.301524985596509,-257.3100906017856,935.2011135301046
-7.321389057425319,-260.85462415809684,958.5413979289566
0.2215822936476779,-245.507895152779,950.7538252104441
3.611610488800967,-253.37704516832972,939.0566605313742
-7.376178409548624,-249.2828845732233,954.5767412928983
8.855776437417468,-249.19620869512016,978.3677402578863
-3.6586703920298986,-268.655453187378,954.6980875222426
-11.44753815013282,-260.89337337419,950.6304395486737
7.9013118649079965,-249.43584200517,950.8812897370664
-10.575068958308904,-252.9508037913049,974.1644700279913
-10.956544793583946,-268.4933183095145,966.3616015662842
4.975521712307466,-272.34478644593213,982.3120025696851
12.245772001651941,-257.06637842688383,966.6705755788164
4.838369881661935,-233.75974466306033,970.4057960669546
-0.40579300780592764,-237.94058113626983,931.0957360566555
-4.722683077299588,-245.75160732768074,919.2833434455193
8.228396037382797,-241.62991439482394,958.7096511040979
-12.347641651328438,-253.3954000601633,923.1195158387421
-7.730448216261415,-260.9565957793946,946.7616362366356
3.4748563474784975,-234.10236931062087,931.1406035700267
-4.014143463874004,-222.40214548291215,934.9135535580449
4.1566182131512805,-233.93105698684062,950.7731998184906
-8.330632784895963,-249.52149816706012,927.0913104882911
-3.7954143361902384,-249.3807773296692,946.782030560895
0.05804173698459719,-249.41034909984552,946.8391346688218
3.693585475162263,-261.07998144116493,943.0090805728767
-11.120107274145607,-272.396791972794,962.4479307408749
-2.2679610264463403,-264.4450449439921,993.951043424615
5.002309657222396,-249.16663692494384,978.3096164337466
-2.349936012807636,-256.74210867115687,989.9986233831125
13.445774041084368,-260.62722744260276,1002.0220972503354
16.23561562817068,-257.06127984581894,970.6556265391342
4.865963402385117,-249.2002875599721,974.3826892975685
8.119633106106571,-257.105127642977,958.7596171985338
12.218239663901537,-241.62583552997205,962.6936823482025
3.9934738162369414,-257.14285714285717,950.848658818251
11.154981568629452,-257.3396623719619,935.2582176380314
11.182615878001153,-272.7802052688737,939.2361305848584
-1.4954036291700021,-296.14292342441104,911.6528070238054
2.8766806197835146,-319.21400274303664,931.4189860961695
-5.593571708993387,-330.931561746366,911.7078716993061
-21.470838665599366,-338.6528529110349,899.7221273319635
-17.017228105418265,-350.11752229354573,919.4515966206607
-5.45721525699398,-330.89791111133775,915.6347988354842
-9.065164964590355,-334.66780195071715,923.4427658782562
-12.210081934197714,-311.2887683357722,939.0148521666421
-11.528299674200671,-311.1184757282049,958.6474484151063
-23.525362891507296,-295.6901694258488,942.7174417359649
-23.307041650308722,-303.35945506365584,950.5957691974324
-18.66305007316464,-287.74352097811186,970.2365231756004
-15.627660821993242,-287.97805570709676,946.7341038988851
-7.430151988701545,-276.3288176900369,958.5923837396053
-23.03467544982232,-283.98178786843624,954.4594739284057
-15.982318120866966,-280.343440420531,934.9298690174526
-4.149286453579969,-280.3648544610035,942.9560553298018
-20.463155103934575,-272.7475743500584,915.2136560395243
-0.5957212707703446,-284.3315505294877,935.1735811923544
7.137982899359109,-261.21254454885207,931.2864229884824
-10.902193919432223,-260.755711685438,966.3371283771728
-22.899155165117552,-245.3284250992949,950.4061019818186
8.63664962041064,-202.90823063941306,962.5091137136536
5.082683689129317,-179.63218836197888,966.3024580259316
-5.250539174947613,-179.23449903891748,1001.4673716304753
5.982358909515483,-167.82081546705552,989.8242519106934
14.725313945129074,-156.03493547745666,1017.3871811474868
13.607704975705264,-179.48636894352305,989.9772093426401
13.798391907532135,-171.71511168441825,993.8786435734936
17.270831527585873,-206.59756389796723,990.1240484773089
28.449368540735115,-202.92046723396882,978.5043822304254
16.37154379936064,-237.71828300184063,970.5924041339296
27.386926218433413,-257.25298649385877,959.0492166030195
19.680013052367528,-257.1938429535061,958.9339886709531
24.02451397775999,-264.8243793752199,974.7232745127034
15.063247898109957,-268.9409737270118,939.2809980982294
15.41749731049849,-257.2672625208405,947.0961031544921
14.954036291700023,-265.1068407662148,935.3418343674957
15.036021475223448,-272.80977703905006,939.2932346927852
3.6667975302473326,-284.25813096215325,947.0114667088151
7.6837961995176745,-280.38524878526306,950.9832613583641
27.57802103674548,-268.7910754437041,966.9397806590428
15.227218265156807,-284.3478659888953,947.1848184650213
15.063247898109957,-268.9409737270118,939.2809980982294
15.145233081633382,-276.64492971606006,943.2323984235188
31.18598094150398,-265.02016488811165,959.1318136162707
7.956091019869171,-261.0075815900435,954.8459463731244
7.846930399269883,-257.1734486292465,950.9067826423908
8.992122692254746,-249.1615383438789,982.2936476778514
-0.18706795898701392,-264.91921298302685,942.9631933432927
7.956091019869171,-261.0075815900435,954.8459463731244
-3.331586219555098,-260.8495255770319,962.5254291730612
-10.247943997185585,-245.14487618095885,981.99181167881
-2.6774178746054975,-245.23869007255286,978.1811321909114
-7.267007591787206,-253.1170175340203,958.5159050236321
-2.186393926570236,-252.83863500787731,993.9133139247348
-6.830762798713119,-249.14522288447128,970.2834301213974
-11.611916403664862,-226.1771349033564,938.7374893567122
-16.119877837997688,-222.4500721449221,919.0335129733396
-12.075683337327224,-214.70736693978068,922.9930710283329
-11.611916403664862,-226.1771349033564,938.7374893567122
-11.311609978942862,-241.5493568139987,950.5672171434691
7.983286851269293,-257.13877827800525,954.8337097785688
-19.37277255739728,-253.16494419603026,942.6368841551397
-26.670269663952524,-272.31215552711683,958.2905477405639
-2.9225270607190024,-260.74755395573413,974.3051908653822
-2.813366440119715,-264.58168691653117,978.244354596116
-25.497901933891804,-260.432461645924,989.6651761814687
-2.840552074357707,-268.45049022856944,978.2576109068847
8.88335976097852,-264.636751592032,982.3446334885002
17.29917963830666,-260.6567992127791,1002.080221074475
10.192094140200783,-252.72340707581083,1017.6461890655831
9.428367485328835,-245.19076341054287,994.0611727756167
-5.6311992372522734,-233.39672569124016,1001.6448022515335
8.501098744219485,-241.56159340855444,966.5624856602409
8.855368550932276,-229.88686248617014,974.3775907165036
15.771746722887022,-245.5925315984562,954.9112082107551
11.75477864510307,-249.46541377534632,950.939413561206
7.056018110159944,-253.5096082760168,927.3350226631928
-0.6233127520611015,-268.8910076325759,931.1966879617403
-7.757236161176346,-284.1347453003829,950.7640223725738
0.2495775825587739,-280.25778425864087,958.7198482662277
-4.5583456124160655,-280.46682608230134,931.1762936374807
14.272763889809468,-284.58749929894515,919.6983679442012
-12.183263397796395,-288.1106188147839,935.0124660307038
14.763349359873148,-272.87809802531956,931.440400136642
15.036021475223448,-272.80977703905006,939.2932346927852
-0.24144738519270087,-272.6568196071034,942.9886862486171
-7.212228436826032,-264.6887571188938,962.4805616596902
-7.457745509424728,-260.8882747931251,954.6144707927785
4.348151509434925,-264.7784921456359,962.6539134158965
0.7945802083280225,-260.81179607715177,970.436387553344
15.308387675709852,-253.43210984383052,943.1569394237584
7.846930399269883,-257.1734486292465,950.9067826423908
3.747966940800376,-253.3433945333014,942.9835876675522
3.8027460957615498,-264.91513411817493,946.9482443036105
4.238990888835637,-260.94333946862594,958.7147496851628
-3.7678310126291854,-264.82132022658095,950.7589237915089
-4.258854960664448,-257.2203555750435,935.0277617738984
-19.617912334997172,-268.6738080792116,938.7609428296106
-4.0133378880657515,-261.02083790081224,942.8928329245972
-11.774663111256139,-268.699300984536,942.8030978978551
-12.483569822518396,-272.7383969041416,923.1827382439469
3.47566192328675,-272.72106172852097,939.1198829365787
-23.962005373904447,-280.3526178664478,926.96078681303
-23.962005373904447,-280.3526178664478,926.96078681303
-15.573309947841517,-280.2414687992332,946.7096307097736
-19.944935324499195,-276.47973568955763,930.932581462579
-0.6505024651639449,-272.7598109446141,931.2089245562961
-7.948361570974798,-272.59767606675064,942.8734583165507
-19.23602861323694,-272.4396200537391,950.5529411164874
-15.30104571897641,-260.8627818878007,950.572315724534
-11.529115447171053,-272.49876359409177,950.6681690485539
-3.7678310126291854,-264.82132022658095,950.7589237915089
-7.048686350588633,-260.78630317182734,966.3942324850996
4.375337143672916,-260.90968883359767,962.6416768213406
7.683388313032484,-261.07590257631307,946.9931118169815
4.729617147547838,-249.23495791121334,970.4567818776036
9.319206864729548,-241.35663044974584,990.1220090448829
5.193047574859917,-241.39435994962605,982.2110506646001
16.726201098234363,-245.35289828840635,982.3966390153621
4.865565713062055,-229.89094135102204,970.393559472399
12.490503892766645,-222.24714861853948,966.557387079176
8.964131482208503,-214.4116492380171,974.3276246220678
19.706423702283658,-214.70634722356772,950.941452993632
38.64622475565051,-203.35180719205846,939.4125414897036
28.31303248305997,-202.9541178689971,974.5784748104603
13.117935278611965,-229.81446263504867,986.2154762329644
17.3528167111093,-214.3005001708025,994.0754488025983
12.899512065792091,-222.1451769972417,978.337148771497
8.91014770589345,-241.45860207104366,978.3422473525619
12.299816960939772,-230.01942559385728,962.6559528483224
8.11923541678351,-237.79578143402696,954.7704873733641
19.788816772292275,-241.718629705353,958.8830028603041
4.211397368112455,-245.50279657171413,954.7378564545489
20.307036551727656,-245.45079104485222,974.6019282833588
8.41953164434338,-253.16800334466922,966.6002151601211
1.4491493017493233,-264.50928706540975,990.0822401125769
-3.7678310126291854,-264.82132022658095,950.7589237915089
-22.89874727863236,-264.6377713082449,954.3962515232012
-23.498544355105977,-272.51303962107346,938.7150556000266
-8.466581350410182,-268.8655147272514,927.1545328934959
-16.77290410078875,-295.98996599246436,915.3472388634244
-16.55417497310499,-322.9675781230084,927.2157158662744
-27.350420378008806,-349.72085268669736,954.6165102252044
-36.393263754697074,-365.443856974604,919.2129830268237
-36.06654668005894,-338.3285831553079,923.0501751362597
-17.34506686789067,-319.3047574859917,903.6439558870767
-10.375102608943932,-288.6541275563011,876.1728011094515
-3.1592031937511793,-281.11230644511636,860.5568670239073
16.462400513936974,-269.5864540898269,868.6605517684428
-1.7413183910917596,-273.0330948896922,899.796566615511
-1.222690725171185,-296.07460243814154,919.5056415799484
-11.283159896600777,-295.6085921288106,962.5233897406354
-17.57225964014215,-287.4702370330337,1001.6488811163855
-21.779608734889084,-318.42372267797873,997.7647820611525
8.52948764358879,-295.6208287233663,978.5186582574071
4.811979626070065,-276.24724039299866,978.3983317442758
4.320557988711742,-249.33794924872413,958.6770201852826
22.90568134888061,-230.34777421443616,935.3438737999215
12.790810317488644,-237.61937052918174,978.3871148659329
19.979503704119146,-233.9473724462482,962.7844370911575
9.673476671442339,-229.68189952736154,997.9371141011458
8.77299587524792,-202.8745800043848,966.4360408498316
-2.651027619013629,-202.7501746264015,970.1896162298034
8.49989547908817,-183.63355478170428,954.5930567523059
-11.285199329026733,-199.06186108406033,942.574681466148
-17.92854848495664,-202.5972171944548,973.8840480694224
-3.468738050200629,-222.26550351037307,950.619222670331
-15.355804479613326,-249.29104230292714,946.6076590884758
-26.370371125715714,-268.37503122880906,966.1311457021512
-26.397903463466122,-252.9334686156843,962.1532327553242
-18.93653796148532,-249.19314954648127,954.4033895366921
-30.005863368224627,-256.7043791712767,969.9611997980962
-30.2241846094232,-249.03509353346968,962.0828723366288
-30.360622638719647,-249.06976388471094,958.1569649166638
-26.506707183390866,-268.40868186383733,962.2042185659732
-22.680426037433786,-272.30705694605194,962.2745789846688
-19.045341681410065,-264.6683627946343,954.4543753473409
-22.89874727863236,-264.6377713082449,954.3962515232012
-26.397903463466122,-252.9334686156843,962.1532327553242
-12.320007341956734,-268.8359429570751,927.0964090693562
-12.156546833016373,-264.9324692937956,931.0100798947653
-15.791631189040093,-272.5721831614262,938.8313032483061
-15.273411409604709,-276.3043445009254,954.5502286713609
-7.730040329776225,-280.2659419883447,950.751785778018
7.60182121315638,-272.6823125124278,947.0308413168617
7.301932872081701,-276.6194368107356,939.1902433552743
7.356712027042875,-288.19117639560915,943.1548999913326
18.644389266467144,-288.3492324086207,935.4754171913958
3.2849342028113577,-280.49231898762577,935.2184487057253
8.010880371992476,-272.5793211749171,958.8106030091827
6.974440813121709,-265.11601821213156,927.3727521630731
-12.12891252364467,-280.37301219070736,934.9879928415924
-4.421989160416657,-280.433175447273,935.1032207736588
-14.700432869532412,-291.6082454252982,974.2327910142609
-4.067311467218674,-288.0677907338388,946.9084753713042
-11.529115447171053,-272.49876359409177,950.6681690485539
-12.046927340121245,-288.0769681797556,938.9393931668818
-4.122100819341978,-276.49605114896525,942.9438187352462
-7.6484732299001195,-268.6605517684429,950.714056278138
7.956091019869171,-261.0075815900435,954.8459463731244
3.857127561399663,-257.17752749409846,946.922751398286
0.1396113861512341,-237.80393916373075,946.8014051689416
12.626839950441795,-222.21349798351122,970.4832944991409
-18.28239001085998,-233.58129432578914,970.0590925545422
-6.7767892195601975,-222.09827005144473,966.2677876746902
-6.449705047085397,-214.29336215731166,974.0961490417217
-6.449705047085397,-214.29336215731166,974.0961490417217
-17.737759581508467,-194.82595993535003,977.785482300276
-13.557229023162856,-187.04960409518034,985.6709477752344
-18.665089505590597,-191.19678993336157,950.2867951849001
1.8022158433308013,-194.90651751617528,985.9279162609047
1.420750205217888,-210.44903203438486,978.1250477991975
16.91658211519734,-218.27127510413854,982.308943421046
-9.893714979121313,-233.47014525857455,989.8079364512857
4.7839884160238215,-241.4973512871368,970.431288972279
16.153630444647256,-249.35834357298367,966.7032064976318
19.898334293566105,-264.86312859131306,966.8123161324204
23.424309014801185,-253.38928176288542,955.051929048146
27.496137824843352,-261.08813917086877,962.9883803337533
19.08021597589391,-265.0680915501216,943.2527927477784
23.015708728260925,-272.8016193093462,947.2623168972076
19.652786629481017,-261.06264626554434,958.9462252655087
26.732370381322884,-253.55549550560085,939.4033640437868
19.37970662764553,-241.8216210428638,947.1032411679831
23.642222369514567,-241.74922119174238,958.9411266844438
19.92515282996742,-241.68497907032477,962.8089102802691
15.553833368173638,-257.23259216959923,951.0230302906701
16.289966502322407,-249.3236732217424,970.6301336338098
15.744214385136619,-230.15198870154435,950.9343149801412
19.788816772292275,-241.718629705353,958.8830028603041
4.729617147547838,-249.23495791121334,970.4567818776036
-2.7861808058817235,-260.7128836044929,978.2321180015604
4.648039850509604,-260.8413678473281,970.4945113774838
-3.168044133317698,-256.9470716299654,966.4401197146834
3.529635502439672,-245.6741088954944,935.1052602060847
4.456506554225959,-229.9939326885328,958.613797780078
-16.419368489749303,-245.69654265217994,915.1830645531351
-19.345648106132064,-249.29614088399202,942.6236278443711
-12.047743113091629,-249.45827576185548,930.9601138003295
-3.5499074607536727,-253.18125965543794,954.6471017115939
-6.9943150821126485,-253.04869654775078,966.368739579775
-18.091295192547914,-245.11938327563442,977.9496566105654
-13.856311788429283,-229.60542081138823,985.8106488964123
-9.512249341008399,-217.926611024152,997.6097851967799
-6.694814233198901,-229.80222604049297,970.2202077161926
-5.494842785252865,-233.3630750562119,1005.5717293877116
-6.040248198926239,-233.49971702875092,989.8650405592125
1.5303187123023663,-233.5935309203449,986.054361071314
-1.5050399473826437,-233.357976475147,1009.5557606318162
