acc_x[mg],acc_y[mg],acc_z[mg]
-372.3463160202516,562.4581279030047,-741.2153997542484
-369.25555617871555,550.6508338729332,-760.7521426786926
-361.8768896616072,562.0951089311845,-772.4544059388273
-361.3038091499136,566.1005542157618,-756.760973421097
-361.0040125832981,570.0376785140696,-748.9203754595097
-360.8123059352583,558.5006092804374,-741.0287916872735
-357.6675011344343,535.1215756654924,-756.6018976918725
-361.46696374399005,562.1981002686953,-760.6746442465063
-365.7844421897386,554.3880937934973,-772.4870368576427
-372.7817348431932,558.4873529696686,-752.9819051358007
-361.8493573238568,565.9639122432228,-772.466642533383
-372.37282864178906,558.5893245909664,-741.2021434434797
-365.02067474621816,566.1647963371794,-752.8921701090587
-357.69605318839774,569.8714647713542,-764.568940463869
-369.3106208542163,562.2235931740198,-764.7167993147508
-358.34969128091655,554.2596095506622,-780.2236237655061
-368.81911763956094,554.6226285224823,-748.9856372971403
-373.4088603141746,546.7443010610148,-768.6508644644197
-377.0992132889417,550.6763267782577,-764.7942977469371
-373.08255112602166,554.5502286713609,-760.8225030973881
-360.9764802455477,554.5971356171578,-744.9434822288957
-380.8436112229967,566.1811117965871,-764.9023876655127
-369.6104174208318,558.286468875712,-772.5573972763381
-361.5220284194909,573.7698398535688,-764.6393008825645
-369.5013077860432,573.760662407652,-772.607363370774
-361.82182498610644,569.832715555261,-772.4798988441518
-376.4996201557107,558.5505753748732,-749.1131018237625
-372.5094706143281,558.5556739559381,-745.1290705796578
-373.1641284230599,562.2531649441961,-764.7749231388906
-373.3548153548868,554.4808879688783,-768.6753376535311
-353.896590578842,562.1042863771013,-764.4853237344048
-365.26642635354585,550.655932453998,-756.7681114345878
-368.51932107294544,558.55975282079,-741.1450393355531
-350.0430830099984,562.0747146069249,-764.4271999102651
-353.07877817603367,562.30924933591,-740.9258003497628
-353.8690582410916,565.9730896891396,-764.4975603289605
-357.5318788781083,573.7739187184208,-760.6542499222467
-361.3853864469518,573.8045102048101,-760.7123737463864
-368.84664997731136,550.753825210444,-748.9723809863715
-364.5301912477758,558.563831685642,-737.1599883752352
-364.7484105173531,566.2331173234489,-745.0383158367027
-365.0482070839686,562.2959930251412,-752.87891379829
-364.9941621246807,570.0335996492176,-752.9044067036144
-353.29699744561094,569.9785349737168,-748.8041278112302
-360.81332565147125,577.8099554893874,-745.0189412286562
-357.88674012022454,562.1002075122494,-768.4693549785096
-350.07061534774874,577.5152575038368,-768.4051128570919
-372.37282864178906,558.5893245909664,-741.2021434434797
-356.95981808262763,558.470017794048,-740.9716875793467
-361.82182498610644,569.832715555261,-772.4798988441518
-365.7844421897386,554.3880937934973,-772.4870368576427
-360.9764802455477,554.5971356171578,-744.9434822288957
-349.7157541056324,569.880642217271,-756.5998582594465
-357.313659608531,566.1056527968267,-752.7759224607793
-357.28714698699355,569.974456108865,-752.789178771548
-361.35887382541443,577.6733135168483,-760.7246103409423
-357.4227692433196,550.6304395486737,-752.7259563663433
-369.09240158463905,554.5543075362127,-756.8384718532833
-369.47377544829277,558.3201195107403,-768.63047014016
-361.05805754258597,562.3000718899931,-748.8948825541853
-369.71952705562046,562.120601836509,-776.4965610070718
-369.5828850830814,562.1552721877503,-772.5696338708938
-369.5288401237936,550.5825128866637,-768.6049772348357
-368.492808451408,562.4285561328282,-741.1572759301088
-369.0098045713878,546.8513712633775,-752.8860518117808
-368.5743857484462,570.1314924056636,-745.1096959716112
-360.6216190034314,566.2718665395421,-737.12735745642
-353.1878878108223,566.14440201292,-744.8649640804965
-349.93397337520975,558.2395619299149,-760.4880361795314
-361.6311380542796,558.2946266054157,-764.5883150719156
-366.0301937970663,558.1875564030531,-780.3521080083414
-369.1474662601398,566.1260471210862,-760.8031284893416
-372.59104791136633,566.2586102287734,-749.0804709049473
-377.5621644496337,542.8367485328833,-776.5485665339337
-360.83983827300864,554.631805968399,-741.0165550927178
-365.1573167187572,566.1311457021511,-756.8180775290238
-361.6851830135674,569.8673859065024,-768.5529717079737
-369.7470593933709,558.2517985244707,-776.4833046963031
-366.13930343185496,562.0227090800631,-784.2912717390751
-365.7844421897386,554.3880937934973,-772.4870368576427
-377.317432558519,558.3456124160647,-772.6726252084046
-362.0675765934341,554.3238516720797,-776.3558401696808
-365.67533255495005,550.5529411164873,-768.5478731269088
-365.64780021719963,554.4217444285257,-768.5601097214646
-361.05805754258597,562.3000718899931,-748.8948825541853
-349.8248637404211,554.405428969118,-756.5488724487975
-372.5094706143281,558.5556739559381,-745.1290705796578
-360.9224352862599,562.3347422412343,-744.9679554180073
-368.90069493659917,543.0162185863675,-748.9468880810472
-361.41291878470224,550.6263606838218,-756.7099876104481
-373.2732380578485,546.777951696043,-764.7239373282417
-356.9863307041651,554.6022341982227,-740.9584312685781
-365.4020486098719,550.6212621027569,-760.6940188545528
-361.05805754258597,562.3000718899931,-748.8948825541853
-373.4088603141746,546.7443010610148,-768.6508644644197
-373.1365960853095,546.8126220472843,-760.7970101920637
-376.63524241203675,558.516924739845,-753.0400289599405
-373.0539990720583,539.108666058236,-756.8456098667741
-369.06486924688863,558.423110848251,-756.8507084478391
-368.9557596121,554.587958171241,-752.9115447171054
-372.7817348431932,558.4873529696686,-752.9819051358007
-369.1474662601398,566.1260471210862,-760.8031284893416
-368.9557596121,554.587958171241,-752.9115447171054
-381.0893628303244,550.6722479134057,-768.7783289910418
-373.3548153548868,535.1715417599282,-764.6862078283615
-369.3371334757538,539.0454436530314,-760.7144131788125
-361.90340228314466,538.9169594101962,-768.4520198028889
-369.0098045713878,546.8513712633775,-752.8860518117808
-361.9849795801829,546.6209153992445,-772.4034201281785
-365.23889401579544,554.5247357660364,-756.7803480291435
-357.80414310697336,554.3962515232012,-764.51795465322
-360.8123059352583,539.1912630714872,-737.0396618621039
-357.8592077824742,565.9690108242877,-768.4826112892783
-377.23585526148076,550.6426761432294,-768.721224883115
-376.79839700611325,535.3041048676154,-752.9645699601801
-369.7460396771579,538.9424523155207,-772.4941748711335
-357.5859238373961,546.7279856016072,-756.6396271917525
-388.05912314602847,539.3309641926653,-745.2973237547991
-369.0373369091382,542.9825679513392,-752.8738152172251
-380.8436112229967,546.871765587637,-760.9132578403431
-365.32047131283366,542.9183258299216,-756.7426185292634
-365.1573167187572,546.820779776988,-752.828947703854
-349.74328644338283,546.7024926962827,-752.5974721235082
-369.36466581350413,554.4859865499432,-764.6913064094264
-358.4863332534556,554.2259589156339,-784.1505509016841
-366.0026614593159,542.7470135061413,-776.3752147777275
-364.8840327736791,546.8901204794706,-744.9750934314982
-376.853461681614,546.8758444524889,-756.9282068800254
-365.5111582446605,554.4564147797669,-764.6331825852866
-365.3755359883345,554.4900654147951,-760.7072751653216
-365.5927355416988,542.8500048436521,-764.5954530854065
-365.4020486098719,550.6212621027569,-760.6940188545528
-366.0301937970663,558.1875564030531,-780.3521080083414
-357.88674012022454,562.1002075122494,-768.4693549785096
-373.21817338234774,554.5155583201196,-764.749430233566
-373.1090637475591,550.6814253593226,-760.8102665028324
-388.9320002243376,531.3883946097802,-768.8313542341167
-362.17668622822276,558.1579846328767,-780.2950039004146
-377.5621644496337,542.8367485328833,-776.5485665339337
-372.94590915348266,554.5838793063891,-756.8965956774231
-373.0274864505209,542.9774693702743,-756.8578464613299
-357.47783391882047,562.2021791335472,-756.6906130024015
-353.92412291659235,558.2354830650631,-764.4730871398491
-361.95846695864543,550.4897187112828,-772.4166764389471
-358.86872683332234,557.9917708901613,-795.942549188561
-358.1590043490897,542.7215206008169,-772.3330597094829
-354.41460641503477,546.5271015076505,-776.2140996160769
-365.56622292016135,546.7188081556903,-764.6087093961751
-373.6546119215023,531.2344174616205,-772.5268057899488
-373.1641284230599,542.943818735246,-760.7847735975079
-373.1365960853095,546.8126220472843,-760.7970101920637
-361.6851830135674,550.5580396975523,-764.5628221665911
-365.9475967838151,550.4846201302179,-776.4007076830519
-361.90340228314466,558.2263056191463,-772.4411496280586
-365.53869058241094,550.5876114677286,-764.6209459907309
-372.91837681573224,558.4526826184273,-756.9088322719788
-364.5567038693132,554.6950283736037,-737.1477517806795
-369.25555617871555,550.6508338729332,-760.7521426786926
-373.29975067938597,542.9091483840048,-764.7117007336859
-365.70184517648744,546.684137804449,-768.5346168161401
-380.16142107651444,547.0430779114173,-741.280661591879
-361.7127153513178,546.6892363855139,-764.5505855720354
-380.65190457495686,535.3336766377918,-753.0216740681069
-365.8925321083143,538.9128805453444,-772.4360510469937
-385.16006995253224,539.0617591124391,-772.7256504514794
-357.80414310697336,535.0869053142511,-760.5278051118376
-357.3952369055692,554.4992428607119,-752.7381929608991
-355.1508415208048,538.6181825597937,-795.8222226754295
-365.9210841622777,554.3534234422561,-776.4129442776077
-373.4088603141746,546.7443010610148,-768.6508644644197
-365.72937751423785,542.8153344924108,-768.5223802215844
-368.90069493659917,543.0162185863675,-748.9468880810472
-369.5013077860432,535.1419699897519,-764.6280840042217
-369.9102139874473,535.0399983684541,-776.4078456965427
-373.0274864505209,542.9774693702743,-756.8578464613299
-365.6202678794492,538.9812015316138,-764.5832164908508
-372.64509287065414,539.2116573957469,-745.0658481744532
-373.436392651925,542.8754977489765,-768.6376081536508
-372.8092671809436,535.3092034486804,-748.9795189998624
-365.32047131283366,542.9183258299216,-756.7426185292634
-369.6919947178701,546.6800589395972,-772.5196677764579
-377.20832292373035,535.2021332463177,-764.7443316525012
-361.46696374399005,562.1981002686953,-760.6746442465063
-373.9544084881178,546.6066393722627,-784.3565335767057
-357.25961464924313,554.5328934957402,-748.8112658247211
-374.363314689522,546.5046677509649,-796.1362952690267
-377.61722912513454,554.4084881177569,-780.5132231699919
-380.6253919534194,558.5118261587801,-757.0240602040453
-380.9251885200349,535.2653556515222,-760.8755283404629
-387.97754584899025,550.93737412878,-745.3350532546793
-396.0934671880816,550.893526331622,-757.2300428790668
-365.86601948677685,542.7816838573825,-772.4482876415494
-377.1267456266921,546.8075234662194,-764.7820611523814
-385.02444769620615,539.0954097474673,-768.7987233153015
-365.32047131283366,523.6089796209716,-752.7524689878808
-376.853461681614,527.5664982435388,-752.9390770548557
-369.11891420617644,531.3761580152245,-752.8360857173449
-357.6675011344343,535.1215756654924,-756.6018976918725
-385.078492655494,531.3578031233908,-768.773230409977
-369.14644654392686,546.8167009121363,-756.8129789479589
-361.87586994539424,542.7857627222345,-768.4642563974447
-372.8092671809436,554.6185496576304,-752.969668541245
-376.716819709075,546.9105148037302,-753.0022994600604
-379.6984699158225,554.8826561567917,-729.5263928048824
-396.20257682287024,554.728679008632,-761.1692066098007
-383.7967093757808,539.4033640437867,-733.4594382383384
-379.8065598343981,539.4084626248516,-729.4754069942336
-395.35723208231155,539.4930990705287,-733.6327899945446
-380.8976561822845,539.1341589635605,-760.8877649350187
-380.81607888524627,550.7405688996753,-760.9254944348988
-376.52613277724816,535.3724258538849,-745.1107156878242
-377.37147751780685,550.6080057919881,-772.6471323030801
-369.5013077860432,554.451316198702,-768.6182335456043
-360.5400417063932,558.5689302667068,-733.1759571311305
-361.3853864469518,554.49516399586,-756.7222242050038
-369.36466581350413,554.4859865499432,-764.6913064094264
-377.4265421933077,542.8703991679116,-772.6226591139687
-392.86708509021946,539.1209026527918,-772.8408783835459
-392.40413392952746,566.2708468233291,-765.076759137932
-385.16006995253224,539.0617591124391,-772.7256504514794
-388.76782591404816,535.2908485568468,-764.9176834087075
-388.4415167258952,543.0967761671927,-757.0893220416758
-383.9333513483198,558.6790596177085,-741.376514915899
-387.97754584899025,531.6270082036169,-741.3449037132966
-392.4857112265657,535.3550906782643,-761.0488800966691
-372.89084447798183,543.0121397215155,-752.9319390413649
-377.1267456266921,546.8075234662194,-764.7820611523814
-381.74300092284324,535.0603926927138,-784.434032008892
-381.33409472143904,535.1633840302245,-772.654270316571
-384.61452177858905,539.1984010849781,-757.0189616229804
-380.8436112229967,546.871765587637,-760.9132578403431
-372.7817348431932,539.1780067607186,-748.9927753106311
-395.90278025625474,539.3564570979896,-749.3394788230437
-380.9251885200349,535.2653556515222,-760.8755283404629
-391.8850983771217,543.2293392748799,-745.3676841734946
-396.3667511331597,550.8252053453524,-765.0838971514229
-380.5438146563812,550.8088898859447,-753.0726598787558
-376.1447589135944,570.2253062972575,-741.2979967674997
-372.7817348431932,558.4873529696686,-752.9819051358007
-391.50372451346794,539.4635273003523,-733.5756858866179
-384.1791029556475,543.170195734527,-745.2524562414281
-403.77294998801835,554.8224929002259,-757.3585271219021
-380.76203392595846,558.4781755237518,-760.9509873402233
-376.58119745274894,546.9451851549715,-749.0753723238823
-392.26749195698847,546.9951512494073,-757.1596824603714
-380.6794369127072,550.7752392509165,-756.9995870149338
-375.89900730626675,547.1154777625388,-729.4427760754182
-368.9832919498504,550.7201745754157,-752.8993081225495
-376.66277474978716,554.6481214278067,-753.0277923653848
-384.61452177858905,539.1984010849781,-757.0189616229804
-399.8919100814244,539.3513585169248,-753.3235100671484
-380.6529242911698,554.6440425629547,-757.0118236094896
-388.68624861700994,546.8972584929614,-764.9554129085876
-380.9251885200349,535.2653556515222,-760.8755283404629
-377.18079058597993,539.0709365583559,-764.7565682470569
-365.3480036505841,539.0495225178834,-756.7303819347077
-389.2317967909531,527.4512703114724,-776.6719521957041
-400.02855205396344,520.0083616729465,-753.2602876619438
-388.822890589549,527.5532419327702,-764.8921905033831
-392.81202041471863,527.5491630679182,-768.8762217474878
-384.69609907562733,527.5919911488634,-756.9812321231002
-388.6322036577221,535.3255189080879,-760.9907562725294
-400.08361672946427,531.58010125782,-757.2249442980019
-392.7304431176804,539.155573004033,-768.913951247368
-396.3932637546971,527.6470558243642,-761.0815110154845
-380.84259150678366,527.562419378687,-756.9231082989605
-380.3796403460917,535.4019976240612,-745.1688395119639
-387.6777492823748,535.5641325019247,-733.5053254679224
-380.76101420974544,539.1688293148018,-756.9608377988407
-384.1240382801467,550.9067826423907,-745.2769294305396
-392.23995961923805,531.5546083524955,-753.1827892297574
-384.8327410481663,546.8676867227852,-764.8972890844478
-405.05473326773165,546.7769319798301,-792.6723192935407
-392.7314628338934,558.4649192129831,-772.9041007887506
-396.44832843019793,539.2187954092377,-765.0451479353297
-392.21242728148763,535.4234116645338,-753.1950258243132
-407.62645755686196,535.5427184614522,-753.4265014046591
-380.16142107651444,547.0430779114173,-741.280661591879
-392.37660159177705,531.5209577174672,-757.1097163659355
-415.08772108722144,531.8013796760362,-745.6766581860269
-399.72875548734794,543.2548321802043,-749.4098392417391
-392.13084998444936,547.0298216006486,-753.2337750404064
-396.120999525832,547.0247230195838,-757.2178062845111
-379.998266482438,550.9455318584838,-737.3659710502568
-388.4415167258952,543.0967761671927,-757.0893220416758
-392.64886582064213,531.4516170149848,-764.9625509220784
-383.7967093757808,539.4033640437867,-733.4594382383384
-380.16142107651444,547.0430779114173,-741.280661591879
-384.42485456297516,566.279004553033,-757.1076769335095
-377.20832292373035,554.5114794552677,-768.7334614776709
-388.8504229272994,542.993784829682,-768.869083733997
-393.3585883048748,546.7218673043293,-788.5720404011564
-389.20528416941573,550.6294198324607,-780.6743383316424
-395.90278025625474,539.3564570979896,-749.3394788230437
-395.2756547852733,570.4088552155936,-737.6606690358074
-406.7811128163033,539.6164847322991,-729.8802343307858
-411.28927819387866,524.0342012817833,-745.5930414565628
-387.81337153870084,535.5304818668965,-737.4312328878874
-406.8086451540537,535.7476814202608,-729.8669780200171
-399.72875548734794,543.2548321802043,-749.4098392417391
-396.3392187954093,535.3846624484406,-761.105984204596
-403.69137269098013,547.1185369111777,-753.4071267966126
-396.06695456654415,554.7623296436602,-757.2432991898356
-372.20967404771255,562.4927982542459,-737.2884726180705
-357.50434654035786,558.333375821509,-756.6773566916328
-376.1447589135944,550.9159600883074,-737.30886694233
-376.66277474978716,554.6481214278067,-753.0277923653848
-376.9625713164027,550.7109971294989,-760.8673706107592
-387.43199767504706,551.0740161013191,-729.6293841423933
-407.5724125975741,543.2803250855287,-753.4519943099837
-426.53913415896363,547.3653082347183,-745.9009957528821
-422.55000433379394,547.3704068157832,-741.9159447925643
-398.9109430845396,562.769141347963,-729.8404653984796
-408.30864770334415,554.6807523466221,-777.0492471945059
-399.6747105280601,550.9924388042808,-749.4353321470636
-403.2284215302882,554.9591348727649,-741.652858009616
-391.6128341482566,562.6070064700995,-741.5039794425213
-380.597859615669,562.3806294708183,-757.037316514814
-384.2066352933979,558.610738631439,-749.229349472042
-387.6502169446244,558.7422820229132,-737.5077116038607
-387.70528162012516,551.0056951150495,-737.4822186985364
-395.521406392601,554.8989716161993,-741.5366103613366
-384.28821259043616,547.0043286953241,-749.1916199721618
-398.801833449751,558.9350083871659,-725.901301667746
-391.640366486007,558.7382031580612,-741.4917428479655
-412.0530456373992,550.8761911560014,-773.1682072879119
-425.8854960664448,562.9771634554105,-730.245292735032
-426.7848857662913,551.1657905604872,-753.7660669035808
-419.4327318707204,539.4319160977501,-761.4659440277771
-422.63158163083216,535.7639968796685,-741.8782152926841
-410.44393345331997,547.4173137615802,-726.036923924072
-410.0890722112037,539.7826984750144,-714.2316693264265
-399.42895892073244,547.191956478512,-741.5692412801518
-391.53125685121836,554.9040701972641,-737.5525791172317
-383.9333513483198,558.6790596177085,-741.376514915899
-382.97889697297245,558.9186929277582,-713.890064395079
-399.48300388002025,520.1450036454855,-737.5546185496578
-387.622684606874,543.3017391260013,-733.5297986570338
-391.01222129881256,531.8625626488149,-717.8435041527944
-399.18320731340475,543.3914741527434,-733.704170129453
-386.9690465143551,558.9135943466933,-717.8751153553967
-403.58226305619155,543.2844039503807,-749.4679630658788
-387.4595300127975,547.2052127892808,-729.6161278316246
-415.44258232933777,558.745341171552,-761.471042608842
-426.83995044179215,562.7385498615736,-757.7307235396389
-411.26276557234127,566.5216970117217,-753.5855771338837
-419.3776671952196,547.1695227218265,-761.4914369331016
-426.9755726981181,524.0851870924322,-753.6783713092648
-410.8803719924745,543.4465388282441,-737.8034293056244
-400.4925229308684,531.4771099203093,-769.004705990323
-396.720592659063,539.1504744229682,-772.8990022076857
-383.9333513483198,539.3697134087585,-737.3863653745165
-403.3089791111134,524.0433787277001,-737.6249789683532
-408.00783142051574,519.9991842270297,-761.2293698663663
-388.55062636068385,546.9309091279897,-761.0284857724097
-379.45271830849475,551.0821738310229,-721.6603019379708
-372.40036097953947,554.7205212789281,-741.189906848924
-396.0394222287938,558.6311329556985,-757.2555357843913
-407.9272738396905,570.2242865810446,-769.2463787327988
-414.9796311686458,566.5859391331393,-749.7167738218455
-437.8549249743797,562.9639071446417,-742.1984061835592
-449.16969607358277,559.2531598456151,-734.5056670728537
-438.1271892032448,543.5862399494221,-746.0610911983197
-426.4024921864246,528.0906323770096,-737.9839190753214
-423.5860360061795,535.5243635696186,-769.3646658135042
-403.5271983806907,531.7126643655072,-745.5033064298207
-384.9153380614176,554.5706229956204,-768.8486894097374
-392.5948208613543,539.1892236390613,-764.988043827403
-387.4870623505479,543.3364094772426,-729.6038912370688
-388.358919712644,535.3938398943575,-753.1379217163865
-387.7317942416626,547.1368918030113,-737.4689623877675
-407.27159631474564,527.9070834586735,-741.6222665232267
-403.3365114488638,539.483921624612,-741.6018721989672
-399.1291623541169,531.8197345678699,-729.7395134933948
-387.5961719853365,547.1705424380395,-733.5430549678025
-407.98131879897835,543.177333748018,-765.2317560023047
-399.9194424191748,535.4825552048866,-753.3112734725927
-411.5890747604942,539.4064231924256,-757.4237889595327
-411.3433231531665,535.605940866657,-749.5576980926209
-403.9371242983078,550.9190192369464,-761.2721979473114
-407.4898155843229,535.5763690964804,-749.5005939846941
-399.8919100814244,539.3513585169248,-753.3235100671484
-411.3433231531665,535.605940866657,-749.5576980926209
-407.24508369320824,551.0852329796618,-745.624652659165
-402.60027634309375,547.3928405724687,-721.9947688558275
-406.8086451540537,555.0570276292109,-733.8571275613997
-411.09859126205185,551.1158244660512,-745.6817567670918
-415.06120846568405,554.9795291970246,-749.6790443219653
-402.9826699229605,551.1586525469962,-733.7867671427043
-419.1869802633928,535.6314337719813,-753.5998531608655
-399.7012231495975,547.1236354922426,-749.4220758362948
-426.4575568619254,558.9717181708331,-745.9387252527622
-406.8361774918041,551.1882243171726,-733.844890966844
-398.74778849046317,566.6726150112424,-725.9267945730703
-403.3099988273264,562.6620711456003,-745.6042583349056
-403.2284215302882,574.268481081715,-745.6419878347856
-387.8684362142016,566.41156766072,-745.3860390653282
-403.14684423324996,566.5655448088797,-741.6905875094963
-429.9837355264031,547.4978713424055,-734.1793578847007
-391.7759887423331,539.3952063140828,-741.4285204427608
-410.7161976821851,547.3489927753106,-733.889758480215
-388.1417201592797,566.3432466744506,-753.2388736214713
-398.3653949105964,562.905783320502,-714.1337765699807
-410.90688461401203,539.577735516206,-737.7911927110687
-406.7546001947659,562.7946342532873,-733.8826204667242
-418.8871836967772,558.8779042792391,-749.7494047406608
-395.5489387303514,570.3405342293241,-745.5135035919504
-391.6128341482566,562.6070064700995,-741.5039794425213
-399.72875548734794,543.2548321802043,-749.4098392417391
-395.98435755329297,527.7500471618749,-749.3017493231634
-395.65702864892705,535.555974772221,-741.4733879561319
-399.1291623541169,551.1290807768198,-733.7286433185645
-414.40655065695216,551.2820382087666,-730.0331917627325
-399.45649125848286,562.6324993754239,-745.5461345107657
-429.3300974338842,563.1097265630975,-718.5236548668506
-422.9323979136607,570.4455649992607,-757.6980926208238
-426.3219346055993,559.0063885220744,-742.0117981165843
-433.80971075749625,551.3962464246201,-734.2497183033962
-438.09965686549435,547.4550432614603,-746.0743475090883
-441.87158713729974,559.0910249677515,-746.1702008331082
-433.67408850117016,551.4309167758613,-730.3227911672183
-437.8549249743797,562.9639071446417,-742.1984061835592
-426.2393375923481,551.3034522492391,-738.0603977912948
-418.6964967649504,547.3408350456069,-741.8588406846376
-403.17335685478736,562.6967414968415,-741.6773311987274
-391.3130375816411,566.5441307684073,-733.664401197147
-383.52444514691564,558.7810312390063,-729.5967532235779
-387.7328139578756,566.4462380119613,-741.4591119291503
-387.1056884868941,558.8799437116651,-721.8010227753617
-394.7851712868309,562.8078905640562,-721.929507018197
-398.6111465179241,547.3969194373207,-718.0097178955098
-406.7811128163033,558.925830941249,-733.8703838721685
-398.9925203815779,551.1627314118481,-729.8027358985995
-421.67712725548483,555.3129763986683,-718.3819143132467
-432.6921017880725,555.5393533979494,-702.8495969571669
-429.1118781643069,574.7497871342406,-714.6344572305528
-433.6465561634198,555.2997200878997,-730.335027761774
-425.74885409390566,563.0118338066517,-726.3183655988539
-425.6397444591171,559.1766811296417,-722.3792018681203
-410.0085146303784,570.6984546200792,-718.2595483676894
-406.72706785701547,566.6634375653257,-733.8948570612799
-414.461615332453,562.8537777936401,-733.9978483987907
-399.21175936736813,578.1413632586052,-741.6701931852366
-399.31984928594375,562.6661500104522,-741.6202270908007
-394.5394196795032,578.3167544472375,-718.0535656926678
-391.53125685121836,574.2134164062142,-741.5427286586145
-417.49629078227537,563.089332238838,-710.4964488382884
-417.7145100518526,570.757598160432,-718.3747762997559
-428.89365889472964,567.0815212126465,-706.7561297690853
-433.0744953679392,559.305165372477,-714.6415952440436
-433.2101176242652,559.2704950212357,-718.5685223802217
-425.47658986504064,563.0801547929212,-718.465531042711
-421.2141760947929,582.4619008529927,-710.6177950676328
-414.461615332453,562.8537777936401,-733.9978483987907
-390.93166371798736,582.0876650028298,-725.8615327354398
-386.4234983404119,578.3595825281825,-706.1585760682802
-387.7878786333764,578.0179775968348,-745.4237685652084
-379.97175386090055,593.4330275884222,-745.3585067275778
-378.6624382434369,586.0380456119062,-706.0678213253252
-374.4816017702274,593.814401452076,-698.1823558503669
-394.0764685188113,605.4666986177747,-710.2884267308409
-401.94765796678786,601.623388211061,-714.3183452045297
-390.27802562546844,617.0088664324719,-714.1959792589723
-396.75730244273024,598.066618060194,-674.9827922889061
-381.86230771976165,601.6794726027747,-690.4702421316149
-393.3677657507916,590.1964483284303,-686.6789372517629
-389.10535198054384,590.2698678957647,-674.8410517353021
-389.35008387165857,594.0703502215334,-682.7071426022139
-370.7647361739228,574.4408131217083,-698.0610096210225
-371.33679696940345,570.435367837131,-713.7544421387528
-359.06757149485304,574.3857484462075,-693.9607307286383
-348.05259696226545,574.1593714469265,-709.4940678009311
-344.1715570556714,558.6892567798382,-705.4590507461775
-344.06346713709576,574.1634503117783,-705.5090168406134
-347.9434873274768,570.3252384861294,-705.5549040701974
-348.62465775774604,550.844579953399,-721.1973507772788
-344.3897763252487,566.3585424176453,-713.3373782076449
-344.22662173117226,570.2609963647118,-709.4237073822356
-336.4380292964468,562.4978968353107,-705.3560594086666
-332.31123778252515,562.536646051404,-697.4451010283839
-313.23540658634704,554.6165102252044,-701.0569358547517
-308.5365542769448,577.9700509348249,-681.4426944981212
-305.11948524725574,554.6593383061495,-689.1619462303642
-300.9111164362958,566.3044974583574,-681.2887173499616
-294.295197646495,546.6617040477636,-708.5956978172975
-286.533117833307,535.0308209225373,-704.5158132491729
-298.9930302396843,542.617509547093,-732.2000887153107
-280.32610524491037,534.5943823833828,-747.5916852339994
-285.1340671891013,534.3853405597223,-775.1352398627463
-276.3094430819903,557.7776304854359,-747.610040125833
-273.00148368708994,557.6103970265076,-763.2586051301923
-261.90493185746413,568.9904299633413,-778.8286519861523
-254.4161359893542,557.2912258518455,-782.6026216903837
-239.35696695609616,564.8065343414928,-794.1753809914701
-248.12652638770632,549.1518510398557,-821.7270933499208
-233.50379589360287,552.6963845961669,-845.0673777487727
-230.19583649870245,533.2198049282885,-856.7257932117493
-249.59899659924645,514.025686651405,-856.9521702110303
-257.7138982221248,494.6724926452968,-864.8570102940354
-254.92395466341722,498.2384402420807,-896.2245007214493
-266.8933835713521,498.22518393131196,-908.1776141699767
-274.9001952756548,475.03785696440684,-912.1443102384608
-271.3740166111771,467.20235758388446,-919.9135280651395
-267.5205090423335,467.1727858137081,-919.8564239572128
-253.0609331423065,466.8138457067399,-947.1103791814738
-259.89507120168463,455.50723233724057,-919.7024468090531
-271.0191553690608,459.5677422973187,-908.109293183707
-263.4487822039127,459.4739284057247,-911.9199726716057
-282.7428326696681,455.7540036607813,-912.1963157653225
-267.1105831247164,447.96541122605583,-904.086512723509
-247.84406499671144,447.8165326589611,-903.7979330352364
-228.98543335389763,447.5656824705685,-915.2880953230717
-216.68867554159678,455.3848663916832,-895.5076402237257
-212.8076356350028,439.91475172459513,-891.4726231689722
-190.1230287610958,435.7645067377749,-902.892425038112
-175.2555663758776,454.8179041772675,-922.3567681114347
-167.9299251018442,439.2152264024922,-930.0444086410754
-170.9921328894169,435.5819775356519,-906.5297527698043
-182.58018793369808,451.1112357430928,-910.6799977566245
-175.55536294249313,450.8807798789598,-930.1973660730221
-178.67263540556667,458.8192705969929,-910.6473668378092
-167.08458036128548,462.59833888228906,-910.4872713923716
-186.2154762329644,462.7818878006251,-906.8499436606793
-186.10738631438875,478.25608133256515,-906.8999097551152
-197.85859595274638,470.5745591002025,-910.9746957421751
-188.67911060351906,486.3312140231374,-871.6442414076164
-193.35043057517095,486.15582283450516,-895.2618886163981
-201.27566498243542,474.5749058037149,-899.2652944685495
-181.244359694697,466.8944032875651,-875.3916984903102
-188.86979753534592,478.55995676403256,-875.5456756384698
-185.7800574100228,466.7526627339612,-895.0824185629141
-189.52343562786479,462.94810154334056,-891.20137865632
-178.53701314924058,478.16328715718424,-910.7105892430138
-166.75827117313253,470.40426649263514,-902.65891002534
-162.95880856357678,481.9464343073323,-906.5654428372586
-166.78478379466995,466.5354631805969,-902.6466734307844
-150.77218010227756,493.600770905457,-890.7241514686465
-155.3068581013904,474.1496841429031,-906.4247219998675
-155.14268379110095,478.05315780618264,-902.5110511744582
-158.45064318600137,478.219371548898,-886.862486170099
-162.25010579555712,466.6772037342008,-882.9559533581805
-149.95334798325626,493.8057338642656,-867.1646280840043
-154.1892491319666,497.6011176089695,-879.0147501950207
-153.99754248392674,486.06404837533717,-871.1241861389975
-145.82757618554757,493.84448308035877,-859.2536697037215
-172.52884522237463,474.8114799651258,-847.8155129427481
-153.23377504040627,478.5314047100692,-847.539169849031
-164.41292388328333,474.8543080460708,-835.9205233183607
-164.03053030341658,471.0884960715433,-824.1285250314838
-153.8884328491381,482.2288956983272,-867.1850224082639
-161.29565142020977,466.91683704425066,-855.4705225535735
-211.9082459351563,451.72612461951843,-867.9508292842103
-247.54324871388295,451.7536569572688,-895.957335073649
-295.47602902112345,443.96302509011747,-943.7442959624337
-338.38160839838275,428.7131691250326,-956.1093747610041
-382.078487556913,417.1261337969643,-992.0462135387722
-420.6951405423871,425.12682720398914,-996.5768126730333
-412.9616127831625,448.24583318462476,-1000.4629511606921
-460.70268644236313,428.91711236762814,-1040.3552691286018
-488.8223807314425,440.42359011487105,-1076.137111041997
-533.937685142225,440.0666894403288,-1155.3078778176036
-613.3246317549826,440.0809654673105,-1223.2107804398038
-693.3917290817966,381.9948708274488,-1298.781948983598
-755.9197075453902,355.2191625070743,-1319.2578505401948
-789.5356722224207,293.9637898772772,-1276.378783784473
-767.6770354810258,275.1551243288993,-1197.5037347106302
-756.5896610973167,310.7014117970969,-1107.187469727175
-730.8785365032912,311.1725206874927,-1032.2383280732972
-716.9451341691608,319.4016305262246,-965.3357670560285
-699.7313047778804,304.2873968174657,-910.0824440558195
-648.1642558875866,319.71672283603476,-870.1156868043626
-607.3664299225526,331.5729632443291,-806.750521329914
-548.5563367714766,377.72225989507126,-786.4020842999395
-519.7279397143776,389.5652439925969,-734.9900322740183
-479.44914930174934,424.4619722331276,-691.3339417640071
-455.347136891803,447.7013047268946,-667.5031738667129
-438.84302998475533,467.1656478002173,-639.8494898869645
-434.11664533760256,455.76827968776297,-612.2682057583376
-425.182911595703,456.0170904437296,-576.813692749308
-416.3022030968782,448.5282945756196,-541.3336868349539
-413.02177603972825,425.182911595703,-552.9798657033748
-416.6285122850311,402.1026548311605,-541.1817491192202
-420.6727067857016,355.74227692433203,-537.1610080914483
-417.0363987702223,324.7632983740625,-537.0029520784367
-409.656712536901,336.20655371610087,-548.7041956223584
-412.91062697251357,324.80102787394276,-529.0919936981539
-382.7372242304967,328.26092498457683,-548.2748950966946
-389.9252038157781,305.2795806926933,-528.6810480643238
-374.6213028914053,308.99440685657186,-532.3897559309245
-374.75794486394443,328.27010243049364,-540.3058128922721
-371.3949207935432,335.8404755956418,-555.9788510857429
-371.586627441583,366.6879107544371,-567.8605843993618
-375.3585577133884,378.32389246072825,-567.9554180071688
-367.6515425757012,378.2647489203755,-567.8401900751021
-376.06828019762105,412.90348895902275,-595.5550570276292
-376.23245450791046,447.61870771364335,-607.4490269358039
-391.91874901215,447.6696935242922,-615.5333370722929
-411.2688838696192,474.83085457317236,-623.7644863434507
-433.4619875288708,471.38013490845503,-596.6125027404873
-452.02082260506904,475.56912911136834,-577.2817424910648
-455.92837513320046,467.86109425746815,-577.3143734098801
-433.76280381169926,486.7523568190973,-608.4422305272443
-445.56805840934476,452.02388175370794,-608.50239378381
-438.1067948789852,455.76420082291105,-616.2522370024424
-419.76719878857716,478.55383846675477,-647.451474254715
-441.71455084050115,451.9932902673187,-608.4442699596704
-422.33790336149457,448.0102787394269,-604.2165265406638
-426.245455889626,440.3022438855267,-604.2491574594791
-426.6543620910301,440.2002722642289,-616.0278994355872
-457.891328843183,440.335894520555,-628.2706122886001
-472.89543320094026,421.24782672982116,-612.7321766352425
-464.2543580121653,451.3212972829662,-702.9709431865112
-534.6239541535591,405.2617356589662,-723.4927319726921
-572.8510755456757,404.63970876904966,-826.1037153360221
-601.1889891043323,423.81547215409955,-869.7628649946721
-649.6122529100152,442.9351511474357,-937.2711374424499
-638.5167207966024,512.2432227111195,-964.8116329225578
-664.9192129830269,574.3847287299945,-961.4924566493146
-645.5996696119471,639.9025151300393,-973.1977790580883
-626.1149322143648,709.3217357609378,-980.9894306414526
-611.27602188311,801.7447344404053,-1016.4000958533242
-650.8195969061811,794.0652516404685,-1044.4341339805133
-697.1422453131295,744.1970499609959,-1037.112571571332
-694.1330627686316,740.0937119199727,-1060.6068331183433
-637.9405811362698,743.1049338968966,-1106.8713577011517
-651.8821412001041,739.7317126643657,-1063.8903193241322
-680.7186959869069,713.4362906803037,-1001.4439181575768
-777.4867054498734,497.8050608515651,-970.7688150387748
-777.6478206115239,397.3548561435353,-954.733777589697
-796.6410547944508,339.6440170700494,-935.2011135301046
-803.9911692575957,216.2124680701361,-899.5732487648688
-772.2076346152867,158.2854491594989,-859.6554378916347
-771.5274839012303,235.69414631907944,-855.9814003762755
-777.8160737866652,224.52417492211922,-812.8677988915686
-796.4829987814393,193.92758995171647,-789.4959032901145
-763.5288299266315,205.80932326533528,-730.1728928839104
-721.1963310610657,274.98177257269305,-745.4706755110054
-647.8185720913871,355.55770828978297,-756.4173290573234
-598.2154966272886,382.0805269893389,-775.3871097673518
-578.8123365267447,420.5850111913855,-779.1508823094533
-552.2201771247062,424.14280105846547,-790.5380532597779
-516.9390158718829,431.74886429106783,-774.3368020679846
-496.9077105841445,385.44966935701797,-742.483926723193
-484.11842984097535,327.7398499997451,-695.0018609820888
-463.6506860140823,304.7207762079814,-655.3716100809145
-451.2448185669929,308.70480745208613,-631.651991250835
-442.58334905395833,289.5759510128332,-600.0601632565657
-392.48877037520464,289.18845885190154,-599.3086324076011
-384.8908648723061,273.6541020633958,-599.1424186648857
-368.7405994911617,281.4437142143342,-579.3038397414
-350.23682909046414,308.1368255214574,-606.5894061682635
-330.26160819443953,350.6467550080813,-594.6597461926347
-318.21060198946634,362.2664212549648,-582.7443622439876
-321.92848730198386,381.6389898691195,-582.864688757119
-325.482198304212,385.60670565381656,-575.0822146196715
-329.03590930644003,408.8827479312507,-571.2898900236065
-343.8503464485834,436.1856495337348,-559.8303192221605
-335.2072318273825,389.0217352510797,-634.1095073241117
-265.52084554868384,550.7670815212127,-657.1581528860519
-336.9172959165465,545.0607495933882,-493.374393906176
-463.4406244742089,263.28868675847514,-529.640601020736
-437.31345566528836,355.5536294249311,-572.7317687487573
-455.6846629582988,521.9886505585497,-581.4177114509033
-512.7948891823406,479.13099784330024,-664.5459968490769
-517.0583226688013,498.36794420112886,-680.3730121907074
-494.13000361999264,606.2743138584533,-707.8655810088053
-490.57731233397755,621.6169639989191,-719.6382046876355
-494.157535957743,583.0961643374649,-703.863194872867
-466.2560609382409,579.2589722280289,-675.9596804209389
-430.9473673476672,590.7338387726696,-659.7716855399143
-411.0792166540053,559.8405163842904,-635.8216108457018
-375.3065521865265,521.226922547455,-595.9099182697456
-348.27795424533355,528.7565070640842,-595.5305838385178
-325.62087970917696,501.4281125562756,-602.9479995717193
-284.1867508272448,500.86217005807293,-629.7971274594281
-273.52561782056057,469.6517159274575,-649.1554200466011
-258.95897171817086,542.6960276954924,-688.429789989446
-256.44129238832835,526.8843080970566,-723.6609851478335
-284.42536442108167,557.7337826882779,-759.5050297502206
-343.8095578000643,604.1267915139217,-815.4966272886256
-356.13282823390256,573.1284383556057,-831.2746962520332
-307.1313853354612,707.6341054284593,-889.8635109848931
-434.8141312272795,712.3482534810563,-907.4903254424295
-555.0886388318131,674.4464215608797,-924.8632305629345
-631.1768034955873,698.4597186602969,-902.5355243635697
-665.9950135877186,737.3119260909689,-914.9628058511319
-718.1167880978725,745.9101731987988,-864.7519795240986
-782.5077880825767,769.8684056227153,-838.3250141485624
-825.3858351220856,758.4863332534557,-850.7023295416886
-808.554399310672,766.4472577281743,-811.231154369739
-786.8517791498626,777.4989420444292,-854.1142999903127
-748.2096332590642,811.9857443673427,-857.5762365333729
-752.9074658522534,788.6311839415092,-877.1914976062162
-734.3761631138055,761.2650599338206,-892.5198717197005
-696.8771190977552,729.8119133445163,-915.3992443902863
-720.3509863205071,679.697960057716,-915.5817735924094
-755.1671569802126,583.3837243095247,-900.0800477227189
-801.4061886576967,467.8845477303667,-876.835616647887
-827.5333574666172,414.23829748181083,-841.724748002631
-871.4005292327146,307.0579657681268,-751.7531470991624
-942.296298940005,211.65841546297668,-666.1520498845173
-974.4938383647833,119.86356197070356,-576.0580830354913
-993.5146048854605,58.28330775545166,-556.5121626651303
-1006.7739748028125,74.39023519754454,-497.8958155945201
-1005.3575889829862,159.70693356039015,-474.614674736021
-932.2816660123489,294.27378360602245,-505.37135515186134
-836.6016937486298,432.3933249376699,-551.4992377621309
-768.3316932897576,489.51272860762856,-593.8409140736134
-649.9936267736689,523.0664905956672,-631.4276536839799
-588.037709105556,526.5274074225144,-622.6621731172215
-507.77074740099835,548.91017829738,-645.0826734919673
-476.7785125399602,494.6459800237594,-628.736622597931
-437.1798728413883,471.4443770298726,-592.7436994284491
-410.6142260608873,451.82401737596433,-600.1284842428353
-386.5642191778029,390.0883584098546,-560.313664707112
-355.51793935747685,343.56176676031066,-543.9941264346133
-346.2293443734609,355.48530843866155,-500.72348865310795
-364.48634345061777,305.6823685968196,-461.583721250376
-341.7191395634595,235.90114871031395,-457.08167417007854
-340.95537211993906,247.67785125399604,-437.48680742149463
-344.53763517613055,286.395456144555,-437.67137605604364
-340.90132716065125,255.41545787807257,-437.5123003268191
-329.2327145355448,270.8009360994836,-437.3899343812617
-332.7588932000225,317.25512789790605,-437.5989762049222
-337.1589686590222,336.45842362070636,-457.35291868273066
-353.9638918488985,351.67564866697603,-500.8264799906187
-362.7895356722225,405.52074357706255,-544.3112581768494
-387.3014739997859,401.48878567094783,-583.9109175916343
-398.8619967063167,420.88786690664,-588.0744188892231
-419.1930985606706,443.940591333432,-623.7787623704324
-447.50347978157686,447.6758118215701,-663.4610187984684
-454.93823069039894,467.11262255714234,-659.7135617157745
-486.5300586846681,494.19322602519725,-687.7506589916027
-505.3897100436949,533.0627686314899,-684.2397760703196
-513.8329602871521,544.5233591491489,-707.9522568869085
-520.8863373323205,579.5037041191438,-696.4019313425075
-508.64362447930745,579.5863011323949,-676.5959833378372
-496.37439900475704,583.5366817414715,-656.8022719277226
-484.15921848949444,579.7494557264713,-636.9840873284965
-481.0694783641713,567.9421616963999,-656.5208302529408
-473.3889758480216,544.7048686350589,-652.4021964687228
-440.83453574870117,493.6986636619029,-702.7629210790637
-426.94702064415475,470.0259517776203,-741.7211789958855
-420.93069498758496,461.81825597936097,-788.6984852115658
-443.6071441317882,461.11159264376727,-887.1520855745847
-468.4453916475046,449.2737071273065,-934.579086640188
-457.7037010599951,487.597701559656,-965.9445376351763
-479.51747028801896,596.2372471741115,-950.939413561206
-496.4967649503144,689.6463114315287,-904.4138416278751
-521.4808318844866,740.5587025130908,-857.8637965054327
-518.8101951226975,810.7427103037226,-795.2664773393565
-497.08106234035074,864.2818903499157,-846.1421586372513
-436.9443183961904,854.7047156776271,-998.2695415865767
-454.3213023815473,865.9164954393193,-1057.4355156959818
-441.41679370631164,876.7540393508488,-1131.8442077569814
-405.25663707790125,945.3748221869855,-1213.9517572259642
-413.69784788893253,879.5980278688442,-1221.7117976067261
-460.1000341604932,721.5766852085065,-1194.3936002610474
-498.46583695757477,474.754375857199,-1139.1963616525522
-545.4686360785794,347.4784967343589,-1135.5457776100911
-618.0816078885247,220.75224465031383,-1093.0338086910413
-667.3012700565433,113.22520942421725,-1046.3104118123927
-675.173479220733,186.61928385330364,-1066.30704674889
-659.5147170542439,221.31818714851659,-1066.1846808033326
-651.1805764455753,213.69274930786767,-1046.4123834336904
-623.6064303304391,202.04962958808565,-1026.3341712001552
-550.2276516445473,224.6965069621125,-1025.3144549871772
-510.7656539185145,220.76957982593447,-997.23656906283
-428.91711236762814,274.44336241224073,-980.4928288457323
-370.9523639571108,297.2095465831859,-979.7015290644615
-322.03759693677256,289.79926886347533,-900.4512244242429
-304.25068703379856,240.0707683051807,-821.5251895397512
-309.7744897595,202.05880703400246,-750.8364222236953
-285.34412872897474,175.17500879505238,-707.2088837676475
-265.28631081969894,171.36330959094087,-683.347524383964
-265.66768468335266,155.8197753565183,-691.1503928456711
-250.44536105601816,186.5479037183952,-702.799630862731
-227.27027068366874,194.10706000520057,-702.47740053943
-227.54253491253388,174.72837309376803,-706.3411052704033
-211.44733420689022,174.7803786206299,-686.4770334415932
-198.98640208429995,167.1936899960741,-658.7927579754555
-179.9921481851601,166.97649044270983,-666.3570128433257
-187.34430208073096,159.4010186964968,-654.6669861777468
-190.4605548275915,128.72081699662988,-627.1377075759817
-195.7324876486874,139.98052342033213,-670.4256805331078
-195.1869394747442,140.1171653928712,-654.7200114208216
-219.31648422244092,132.318375796016,-682.5276725487298
-224.45177507099777,143.61275257095951,-721.8887183696778
-225.7070457291736,178.054687380502,-765.1940265024244
-259.09867283934886,200.82087155144725,-844.2638413729461
-280.49435842005175,246.77846155414952,-915.3819092146656
-270.2441710471976,312.01276684698655,-966.4686717686468
-312.19631576532254,335.6212366098515,-959.3275991291625
-315.2044785936074,339.72457465087473,-935.8394558794289
-334.58112607261404,363.01795210392953,-944.0573488398179
-364.3180902754764,363.52984964284445,-913.106922343512
-367.4904274140507,363.7297140205881,-893.5324499191877
-392.610116604549,375.9897620492217,-842.9300525663709
-391.60161726991385,383.96598226713513,-815.4690949508753
-397.42623627844375,380.6355891155492,-760.600204962959
-392.94560323861873,353.73037683612654,-736.894862159861
-373.5138910841114,338.17460600714827,-728.7024621047964
-342.46761126378533,310.95838028276734,-716.3710339412543
-327.8448807696818,314.50291383907864,-739.712338056319
-310.04981313700404,317.84656330143326,-782.6281145957081
-292.17418792350094,332.7966226999026,-825.5816206349774
-295.01001871179255,335.94652608179143,-908.0511693595673
-298.44646234952813,350.5325467922278,-1010.1920635487145
-287.40497519540315,392.793665522885,-1033.7169165821153
-297.42980528518916,411.5809170307904,-1104.5769962219515
-318.0607037061586,411.3881906665376,-1144.1317881233654
-365.80177736535927,392.05946984954096,-1184.023086375062
-416.19615261072846,349.89012557805165,-1184.6349161028488
-486.81252007566303,326.9403924887704,-1217.010905864898
-559.1287544676317,339.31668816568356,-1194.5873463415132
-611.1954643022848,374.962907822753,-1148.3942018936132
-627.211127143316,425.13498493369303,-1176.2732431564295
-668.7533459438239,410.2277536161687,-1149.3731294580718
-688.5664319619851,429.5483167034615,-1169.3595672324393
-693.0745973395605,433.27639917810876,-1189.0706816293027
-689.7656182284471,413.79981951023035,-1200.7260379436404
-671.152738192961,398.04010543865644,-1216.093161273218
-654.565014556449,351.87245389608074,-1172.520687492671
-662.7339611386152,266.853614639046,-1168.4316254786293
-669.8658563321828,174.37147241922574,-1132.9047126184782
-695.3658996701218,74.54074531058006,-1070.1513768718166
-666.4803985050961,-21.735760937731033,-994.8259599353502
-656.8644746167142,-59.9352480204759,-931.7595713113042
-639.2407193078168,-74.94771405117957,-864.7254669025612
-641.3770247740055,-43.59195036021476,-821.6924229986795
-638.5972783774276,22.75782249799881,-755.1569598180828
-582.3874615694452,131.04169109736762,-711.5090270377755
-579.354825552049,265.97257983103304,-762.9384142393172
-501.96040441945013,350.42139772501315,-769.9132731360863
-454.4926147053275,388.99012404847736,-741.8608801170635
-404.207349094747,415.68527478802656,-741.1970448624148
-365.6987860278485,392.2093681328487,-736.6164796337181
-337.4159371446927,403.91469054162235,-700.9111164362959
-307.02431513309847,380.3959558054994,-708.2255408319866
-291.5827525199737,364.83610611166915,-704.0171720210266
-291.36453325039645,337.8574742649121,-692.1486950181765
-279.06675572188266,326.36731197707684,-668.3780903774481
-275.2683128285399,318.60013358282396,-668.2954933641969
-278.3305206161126,295.6575385070335,-640.7917076677561
-281.25608643114623,292.0579402752215,-613.3511443765201
-272.9770104979784,296.00424201944605,-597.5414642105103
-279.15649074862466,300.30846415442585,-554.4778288202394
-306.48590497264615,308.1511015484391,-566.6879107544371
-290.2540622944635,327.5471236354923,-546.8870613308317
-320.4549973742308,358.83711563072,-535.6712027042875
-334.8880606527204,401.6835514676266,-516.4087634411344
-349.8666721051532,425.0829794068311,-508.86286346509775
-361.2365078798571,452.253317901628,-509.1249305318331
-361.15493058281885,463.8597278377428,-509.1626600317132
-384.38508563066904,467.87231113581095,-513.4485272748595
-388.0203739299354,498.85230940229343,-513.607603004084
-404.5520131747335,494.82850922588256,-545.2381802144464
-421.11220447349507,506.2462716625963,-580.8466703716356
-402.71754370758623,536.7735159305166,-612.0714005292327
-381.12505289777863,551.6593332075685,-658.8937098805403
-367.3751994819842,585.8799895988947,-713.747304125262
-356.98735042037805,593.2209266161228,-748.9377106351303
-338.53864469518135,612.1764312991695,-776.1977841566693
-331.949238526918,607.9741807854874,-807.4826775708322
-350.3979442521147,589.0186761024407,-780.2226040492932
-326.48661877399525,565.8670392029899,-752.3139910163002
-342.09133598119644,558.2150887408035,-756.4458811112868
-342.47169012863725,504.0528620884808,-756.2694702064417
-343.45265712552197,480.6350792574427,-779.7525148751103
-360.71951175987726,410.77534122253786,-819.0217862368904
-398.31746824858647,344.6589814054749,-890.0052515384969
-450.4565779343609,325.2231903861156,-945.6654413076841
-476.33187683867584,320.8486078324403,-1024.5292735031842
-524.4553440777432,305.2867187061841,-1076.2186883390355
-563.6450775749109,347.90065924653175,-1104.424038790005
-612.105051164261,406.6261159519306,-1070.0290109262594
-618.3681481443715,495.8716789117589,-1046.8712557295305
-628.2104490320345,507.9777497922329,-999.9643099325459
-629.0568134888061,523.2123100141231,-1027.49664768295
-589.1767321154523,514.532485609255,-1097.5205600281442
-557.822497998807,505.705822069718,-1191.2120856765564
-531.6841123115437,438.63908674215975,-1312.2524001570364
-537.7167534275212,322.2660133684796,-1351.1953623306636
-570.0672502842459,105.85470063681278,-1350.9506304395488
-581.2984046539849,-2.1063054152029492,-1319.3598221614925
-608.7175539047483,37.60570633192783,-1229.6349925815648
-638.9551987681829,89.19304757485993,-1112.5307826831793
-672.0806799467709,58.95570862628931,-1061.9018727088253
-649.2410762084912,44.2554796999995,-955.5444519790143
-567.5006245761805,63.145212687309126,-934.7605961260981
-476.05451402874587,89.20436642482399,-968.7997430315144
-362.60598675388644,130.25141103230973,-1037.8773587310654
-272.5772817424911,148.23104729953656,-1111.164362957789
-193.80930287101103,131.6188504739131,-1168.7987233153015
-148.38502444769622,92.43758062131309,-1183.6865800247792
-137.45162721214686,99.91464975297376,-1203.1631596926577
-124.82754049548012,96.23031310386321,-1171.5723514146016
-141.42240214548292,89.32571265416836,-1093.2989349064158
-154.62670738733414,55.241902178623704,-1022.7447701304728
-213.39091330882616,21.686202729780305,-933.2412189687611
-285.0239378380997,-4.384820504453611,-883.20578383036
-367.4812499681339,-61.076922292526,-805.7573177384735
-454.5283047727818,-87.02900582767816,-755.9533581804185
-494.60009279417545,-28.191890196958187,-701.8074469875035
-502.798611146518,37.39646056502476,-729.6242855613284
-474.81657854619067,83.7838609514972,-709.7387996920457
-446.3144906772446,68.51106137162029,-662.1649594917735
-388.73111613038094,75.73381327976425,-669.1755084559967
-357.43908470272726,44.717003257993305,-648.9790091417559
-318.33194821881074,9.806131553588637,-624.7281181647148
-291.27581793986735,21.203978932663045,-624.3610203280427
-264.7101711593664,1.5836804617275015,-631.7458051424289
-233.4191594479257,9.185695420964347,-619.5296049109534
-200.04792666200998,35.62266421254965,-662.2893648697568
-199.61148812285543,39.59405097561349,-650.5218397719915
-199.5299108258172,51.200256968485675,-650.5605889880846
-213.1176293637481,98.1201531613752,-607.7508629348453
-255.69689955285446,109.98557101558637,-616.2787496239797
-313.7982899359109,106.49406270234994,-624.9861063665982
-338.09098927768406,75.48377886434206,-652.717288778533
-354.2412546588285,87.0037168655963,-676.5460172434013
-383.970061131987,82.65921594020385,-755.4689929792539
-398.44901164006063,112.91113683062005,-846.0544630429353
-434.7386722275191,116.63819958905437,-893.7058016753939
-466.49365481586483,120.50496346866669,-921.6674399514617
-513.8523348951987,78.1009824965712,-945.7806692397508
-557.549214053729,47.20480490279556,-977.7283781923493
-585.2589824251911,39.50472383535663,-997.740308872041
-635.162874172118,28.353719159957787,-990.6012756649826
-688.5664319619851,48.21656732931226,-979.6943910509706
-730.7918606251881,71.75620624780125,-980.4061529676292
-771.680441333177,111.07870679589871,-945.8296156179737
-771.8996803189673,157.3666848516058,-961.6872224459934
-749.1069835264847,207.3103455308388,-981.1383092085473
-696.2499936267737,225.92934386360278,-1015.7301423013977
-639.2927248346786,202.09959568252157,-1034.42052076907
-612.7811230134655,155.43228319558668,-1037.7855842718973
-585.5343058026953,135.98323586545865,-1025.5387925540324
-577.7171613140064,112.7795934391459,-1017.4973104984883
-600.9197840241062,82.04279748945869,-1013.817154685851
-601.0839583343956,97.44928186485703,-1021.725053917495
-613.1624968771191,139.8897686773771,-1045.5966104633083
-598.1583925193619,158.97681675189796,-1061.126888386962
-603.5384152590335,135.45196371849715,-1100.3757654244826
-585.6607506131044,53.855292072216315,-1123.3805631892646
-576.1712715351318,-8.544008402461596,-1170.1243543921728
-565.1552772863313,-47.38896565085937,-1177.6804515303393
-562.2827367143724,-109.45531858483785,-1193.129152156955
-546.5138451968818,-97.89948657288677,-1185.0733940744294
-565.2358348671565,-136.23306633763826,-1161.6811041487156
-568.3510678978041,-224.84130666435536,-1122.1874952200803
-592.7610346040698,-266.47122105917924,-1039.9881712919296
-616.8987370814704,-250.10375612467053,-961.9156388777005
-676.4287498789088,-179.580182835117,-915.9498911452944
-725.4628236961654,-47.62248066363132,-913.2048150999577
-735.0624321251397,95.84893924020946,-886.3607857933139
-672.8638219983379,172.7470644919519,-885.6887928089614
-612.2182396639016,202.91332922047798,-920.2031274696253
-554.4166458474607,221.77603972814367,-923.3254985137637
-453.2465214930685,302.3478965803817,-910.3078013388875
-392.79264580667206,363.36159646770307,-956.7038693131702
-417.9939122942086,364.01421484400896,-906.0637424604735
-399.3524802047591,294.1942457414102,-909.4736734766715
-399.4340575017973,301.89718201424546,-913.4250738019609
-382.6026216903836,290.5487602800141,-869.9637490886288
-357.89999643099327,302.3529951614466,-826.4626554429902
-343.0131594377285,310.8217383102283,-732.0777227697532
-334.215047952155,291.72653250600365,-696.5599873555191
-318.227937165087,276.30332478471246,-676.6449297160601
-301.1232174085952,245.71387782780056,-621.3416406214151
-273.1401650920549,272.79142214721645,-597.4660052107499
-260.6251880101768,292.2506666394743,-573.7963524751062
-251.93720587560486,315.6093059301597,-550.1970601581581
-236.27946342532877,369.61755543432264,-554.0689226188352
-228.27367143723905,431.42357481912785,-558.0825256331163
-242.02454456924642,455.13095705465173,-515.1973405801166
-226.88277852273714,435.63500277872674,-518.829569730744
-245.3610560181102,490.0480796194419,-507.5158183477539
-218.4415677117059,520.721143305818,-515.0657971886425
-256.594249820275,517.2530884654801,-503.85197799452413
-237.43582161084575,520.9383428591824,-507.5015423207722
-256.94911106239135,544.197049960996,-519.6463624173392
-260.99432527927485,555.7647106810175,-527.5950502975022
-271.60039361045824,575.4024055105465,-504.27210107427106
-276.6816394997273,594.4333691933535,-543.6586398005436
-292.6687502867952,629.1659231235948,-567.5638469813852
-300.5939846940597,636.8943523017545,-575.5574023749191
-312.37272667016776,644.6533729663036,-583.6090815925928
-297.5858218657748,652.1003604696814,-603.0356951660353
-305.9750271499442,671.2985576114169,-626.7746886041615
-303.5134322118155,705.6762502995417,-673.9488000489465
-331.38737489356714,713.3832654372288,-701.8645510954302
-371.5856077253701,709.4012736255501,-749.5485206467041
-411.6482183008469,763.3819907919627,-805.2760116859479
-436.05206670983466,813.443938551901,-852.905936277934
-481.33154543090666,847.8032763481923,-943.96557438065
-504.66979039733246,855.6499926070575,-952.1916250707428
-500.2717543707587,894.3757552273204,-944.4071115008693
-510.4434235952135,975.9143030494614,-921.2860660878079
-506.07291990639015,1030.076529701784,-917.4794654647613
-458.22273661240075,1045.5762161390487,-873.6439049012661
-413.21042353912907,1122.1467065715613,-924.2483416865088
-388.50066026624796,1187.0210520412172,-1002.589059464751
-447.3362463226485,1040.4572407498995,-1002.9755319094696
-458.97426746136557,835.8471037510261,-963.2137376168214
-440.9048961673967,781.3310355728001,-986.3072506921326
-442.67614322933935,722.9584006770917,-1025.3858351220856
-578.9316433236631,391.52921741879237,-998.8334446523535
-714.3693310151785,98.92348559395921,-956.7038693131702
-800.788240632632,26.786211397368117,-879.2625412347744
-857.5823548306507,54.518821412001046,-856.6595116579057
-841.7614577862983,151.04954291220756,-864.5969826597259
-822.9599302514112,258.91716335343875,-900.0015295743196
-775.7562470364498,331.1813922185456,-997.6536329939379
-715.9560094425723,357.27287096001186,-1055.7121952960492
-631.8355401691709,379.62505034848806,-1078.0745718466553
-569.4431839619034,348.43906940698406,-1049.5633065317923
-476.11365756909856,332.48968811979626,-1020.6441547317382
-389.39291195260364,292.70749950288837,-1066.30704674889
-334.6249738697721,234.56735990373883,-1029.9643609183565
-305.9321990689991,207.7569812321231,-974.500976378274
-316.6188249810078,138.55088128973708,-935.181738922058
-345.6185343618871,108.35300535860873,-876.6449297160601
-348.2177909887679,112.55933473714268,-841.3760050577926
-358.2232464705073,101.45248377376578,-794.3936002610474
-349.0162287835296,101.76930960113802,-751.0852329796619
-347.48869389648866,86.7048380435725,-703.9162201159418
-315.84384065914463,105.98114544722205,-683.8838951119905
-298.90227549672926,90.79787695084458,-636.4834066679243
-293.73945231042205,83.3728133460458,-597.1356171577451
-266.6557896937283,60.02049629588087,-588.8014765490765
-219.05135800706665,79.31495464812144,-552.832006852493
-191.4231669326427,114.02772608383088,-540.7616260394733
-182.81676209510897,106.47060922945145,-513.1344546812624
-171.14712975378953,121.85608745086245,-513.0120887357049
-163.82250819596908,144.87210209398725,-528.6779889156849
-148.1362136917296,164.13046249228842,-524.5838283205784
-119.21808160788854,182.722948203515,-583.0818883104832
-105.25000892251687,209.2743189570343,-630.0581748099504
-129.89756950640637,185.89936420694124,-669.5946118195308
-138.66814865422953,189.55300739804116,-701.135454003151
-155.36396220931718,220.24646540867678,-744.660001121688
-191.2732686493349,239.51502296910772,-784.5084712924394
-250.4117104209899,262.7982032600328,-828.6438284225501
-294.2717441735965,247.30871398489802,-868.4953577419406
-352.9186827305961,224.3712174901725,-888.9192537716756
-361.58117195984363,262.8104398545885,-924.5002115911143
-389.5642242763839,255.04122202790967,-952.3659965431622
-389.6182692356718,266.6139813289962,-956.3296334630073
-411.3137513829902,289.3251008244406,-1031.3001891573576
-428.6642227468096,304.40568389817116,-1090.4845181585968
-447.52285438962343,323.96690001172675,-1082.9794068310791
-455.8029500390042,358.6392906854023,-1106.769386079854
-465.09154502302016,385.33546114116444,-1158.0203229441247
-477.7441837936502,423.7695849245155,-1197.5853120076686
-504.47298516822775,439.48749063135733,-1194.1080797214138
-532.4285051470176,416.27772990776674,-1218.0000305914864
-566.9458989563205,401.1390230098964,-1210.6172852095262
-586.3225464353271,405.1220345377882,-1214.838910331255
-634.7804805922513,405.91945261633697,-1168.4724141271486
-646.2318936639933,402.174034966069,-1164.70966130126
-633.7179362983283,421.6342991745398,-1141.0420479980423
-622.2114585510853,394.4976113147712,-1136.851014362703
-617.8929603891237,344.37957916311893,-1113.0712322760576
-599.5513248662899,270.6224857622124,-1124.3187021052042
-560.8520748675644,216.30016366445219,-1107.8604824277404
-554.2351363615506,177.34802404490833,-1131.1813922185456
-542.3737973721915,123.26737468962388,-1111.1949544441784
-534.0386370473097,96.332284725161,-1087.4355666817926
-567.2732278606863,12.001244053779835,-1028.7712929491724
-582.168222583655,-30.230506849943666,-1005.3086426047632
-627.0530711303045,-82.60343746335396,-844.8950457087792
-592.1298302682363,48.494338025727444,-864.4368872142884
-700.7887504907385,-20.37790682852962,-873.6816344011463
-786.2450480031408,-58.51315178985689,-886.6065374006415
-820.6043857994322,181.27393146487336,-927.1759469339684
-842.6373940132463,355.51080134398603,-932.0185792294005
-826.0251971876228,409.75868415819883,-908.4050108854707
-717.8842928013136,463.05313231327733,-910.8900592964978
-697.1432650293424,401.48368708988295,-855.4266747564154
-628.4623189366399,381.4676775453392,-870.0290109262593
-553.800737254822,373.54142342186174,-825.7131640264514
-495.37201796739976,365.52849342028117,-805.1872963754188
-435.4687890360113,334.7136891803012,-737.4679426715546
-373.26813947678363,315.06477747242945,-716.8472414127149
-341.8129534550535,307.26088929450935,-696.7262010982345
-335.9414275007266,303.87543146742263,-637.7570322179339
-318.9172653250601,261.679574574396,-582.4149939071957
-302.4947357150505,230.91779557749084,-546.7443010610148
-289.02530425782504,269.92703930496145,-499.5783473459337
-279.6275996390205,239.3957161721893,-444.3902861833553
-260.41512647030333,270.1289431151311,-452.05549295631033
-248.9912457363116,289.31490366231077,-459.7981981614517
-236.8311298965498,297.0994172321843,-443.9436504820709
-213.98438814477933,335.47133832654373,-459.42906089235373
-218.02858264544977,347.0389990465654,-467.37774877251667
-229.2362835422902,397.42215741359183,-467.7162945552254
-233.66185190661443,412.7556301081409,-487.45698072226503
-258.4735868007934,404.78552818750546,-534.8972380986372
-272.27952460830153,459.37501593306587,-499.96685922307825
-264.4103745927508,540.45571117558,-511.89651919870704
-326.8547363268803,409.429315821407,-508.46517414203635
-346.1508262250616,502.25714183742673,-528.6902255102406
-358.06621017370867,548.6001845686346,-548.6481112306445
-365.82930970310963,618.1591063207111,-564.6974247067042
-419.23388720918973,676.6408508512081,-561.7698194592446
-464.0585724992735,723.6966752152877,-531.2038259752311
-495.81355508761914,746.873805020063,-563.1545940764686
-526.3407993555394,731.7391769870446,-551.7867977341906
-538.9648860722062,735.4234116645339,-583.3847440257377
-569.1107564764727,735.832317865938,-564.2150989379656
-593.3759234804954,689.3811852161543,-587.9693881192865
-619.5316443433793,689.7951899986234,-564.8146920711966
-627.8953567222243,770.7892093630344,-600.5353510118135
-652.1615434424601,801.5754615490509,-640.248198926239
-649.3726195999654,843.7601015637349,-679.5949687202053
-642.8668301611661,905.1898456659512,-726.8006913675925
-619.3113856413761,947.6008626799163,-722.665742123967
-627.2927044403543,1063.4518413525518,-754.5736821442594
-638.6900725528087,1106.0555847307696,-758.8126424416087
-644.4626860344767,1149.0876089184383,-711.948524725569
-630.6659256728854,1137.9727021969788,-644.9858004517343
-643.1329760927534,1111.7965870098353,-554.818414035374
-658.9365379614854,1062.6054768957802,-444.9990567625031
-712.9192945603239,1006.0856663590523,-323.95466341717105
-754.7327578734838,933.1810557121954,-292.9379553670214
-799.9632902163329,844.9674455599009,-246.22169650186356
-807.996614542173,779.2926228630573,-242.1958568930267
-774.8150489718713,740.0304895147682,-276.88864189096176
-751.9387354499244,724.3421555781027,-280.4178797040784
-688.2839705709902,692.4760239225425,-326.451948422754
-657.3468003854528,688.4032773679086,-322.04983353132826
-624.6098310840094,650.0252379762713,-258.63674139486983
-595.0900664345114,599.2545874483133,-285.4950467284955
-557.5084254052098,521.4798121682736,-296.4437397072395
-530.3972304507656,501.99711420311735,-288.1228554093396
-466.3070467488899,551.3391423166934,-338.3489774795675
-378.68895086497434,658.5347697735722,-388.4180632529967
-366.23107789102295,786.1135046116666,-388.66279514411144
-293.51001616250204,947.6243161528148,-435.2128402665538
-268.9430131594378,920.7751882651058,-387.65939439054114
-222.12784182162105,866.4946745320779,-359.302106223838
-205.34943125328226,828.0992999648198,-311.82615878001155
-234.81515094349245,867.2982109079045,-281.0031968103277
-228.50718645001098,887.1938939393168,-214.25665237364444
-234.0605609458888,903.2411679829505,-155.52507737096767
-228.57142857142858,922.9308683393413,-112.33805631892646
-251.3631056476983,872.9872076601083,-92.88819321582805
-258.57759785451714,768.8986555041733,-57.32355085579684
-277.5687926050181,633.9504315948872,-21.831206375265765
-311.75579836131607,472.14186291954957,25.298037556148127
-372.6175605329037,314.47946036618015,79.86295014097577
-448.2927401304218,164.80959349013173,149.87788898349592
-530.6378834770284,7.736291190161779,251.21422708060348
-580.1043169685877,-95.9903738789495,290.0694936599145
-639.5762059418864,-172.20457546664764,367.92788566941823
-695.6320456017091,-194.49149301749327,422.10846721357456
-747.753820111863,-185.89324590966336,472.3182738243947
-784.3799870496042,-165.80687594642413,522.7218265156807
-810.9456338301052,-146.18651629251582,530.1076310462798
-872.0827193791969,-149.44247016055434,544.9006541479507
-941.5814778747076,-148.94178949998218,539.9336164745353
-1030.2906701065094,-121.24425772307569,530.6623566661399
-1100.4777370457803,-82.29507528054943,498.0824236614951
-1178.057746529141,-39.34921711287749,473.22786068637106
-1264.4175126062419,-12.058144218464003,420.8215853527964
-1326.9465107860485,57.71287850591181,380.4041135352032
-1389.9955642344737,111.90671636083678,328.2568461197249
-1449.9854690439652,189.04314929155217,248.60579300780597
-1479.383887464119,231.12377825251235,169.53087955621953
-1511.6884970912597,292.7819387864358,113.89414325993077
-1509.414529936319,338.6987401406189,58.82844804290967
-1511.1378503362516,403.91978912268723,-4.211254607842638
-1463.996369810282,453.99295376096836,12.024391611814433
-1429.8868624861702,488.338015530278,-11.12826500384943
-1424.6659154757233,507.9593949003993,24.20530966232098
-1396.3891848898452,481.04602489127285,67.89056405602322
-1364.1151667490938,473.44709967216124,111.57021001055408
-1351.8377835448396,419.46944165438765,143.3333503286036
-1339.9784839879064,384.69813850805326,159.3265794129494
-1335.6344929206205,338.4489096684393,183.09514462125193
-1322.8166601234877,303.91825954836776,226.57482422641783
-1294.99880183345,288.473637786604,254.51606817822605
-1291.205457521172,261.3971131834011,258.5888147328599
-1236.9769493150056,241.74004374582557,271.24145350349
-1186.613165556026,241.42087257116347,279.8458189085978
-1110.2466183661088,198.1675699652787,269.3621165229717
-1060.9229451443664,166.69402905171495,254.5089301647352
-1008.0608566635906,127.38498875762876,231.88550626360689
-1002.3983725329243,88.19382765776285,181.0822248168335
-965.0635028271633,91.45712348253483,146.30888223807318
-988.2926381588004,76.16076845813811,146.0121448200966
-1008.6512723509048,76.03595519366962,114.31120719103875
-1023.897049451138,80.05781790927585,117.99340243610204
-1012.941218458903,91.40379232459607,98.49642844396406
-1001.4632927656235,99.01770737203837,94.71807396001694
-989.6305058302275,118.30645531348628,98.75482453233266
-970.6902968903756,129.66099534499548,87.2263209148894
-947.3520519239497,141.12260557886742,91.46191614873582
-912.4797968725305,148.626697190172,95.88350761982942
-889.7411450393356,171.5234050363784,80.4484711904677
-835.493262225123,175.04448511979118,89.09841791029558
-812.290639515023,186.47142500242185,89.40739192282788
-746.1549050899135,217.01804387838865,102.06849433802574
-723.034879393065,216.83959354111752,102.4162175666512
-675.865866529345,212.8535228645868,130.608311706852
-638.2312002569686,220.05373904442393,103.67556708967895
-598.7692025309358,216.12681190824594,131.75141358160027
-574.6671901209894,220.0567981930629,159.57233102027706
-549.9105199023113,220.28827377340886,207.03706158576068
-549.3914843499055,216.55713215012264,222.75598700881545
-544.8027613915049,243.74480582054017,238.43208435092518
-555.0539684805719,236.43853915455333,277.5494179969715
-566.7511331596418,255.8029500390042,269.45898956320457
-562.9792028878364,263.47631454166304,265.56571306205484
-570.7953276603122,267.3706107590258,261.51030168304163
-585.2824358980896,283.1700937629058,284.7883833929018
-618.6546884002183,276.0422774341901,323.55799381032267
-645.3569771532583,295.62796673685716,327.0168712047437
-675.77511178639,315.2789178771548,334.34455191120315
-709.7744897595,315.71739584873535,353.45607317483547
-751.6991021398745,304.5749567895255,368.5641885863165
-800.23963331005,313.0753111409095,410.97928446513345
-837.6560803128491,298.2058093232654,445.79137625998686
-914.2622608128158,306.6419215532318,456.3892868614665
-983.514247984786,284.03277367908515,463.2774698801324
-1040.2532975073038,280.8838900134093,493.834285918229
-1077.942008738968,285.2554134184457,516.8033936155568
-1132.4662346468979,281.66703206497635,500.30030642472207
-1142.581819479639,274.3954357502308,543.3435474907334
-1179.3629832817528,271.2689858412404,593.8235788979928
-1194.230445666971,252.21456868553486,613.2879219713155
-1193.4146726965887,233.11120515160633,640.8375948973401
-1204.7029311742542,194.64954903050483,656.4963570638292
-1213.2787445253987,128.83808436112233,644.81652756038
-1213.3399274981773,82.48188729076699,652.8212998322567
-1198.90074592241,1.0170853451484454,641.538139935656
-1174.3255851896417,-69.30705184747086,587.1984826622752
-1196.9836794420114,-80.59785961566897,602.5961974782418
-1217.010905864898,-92.22629542198408,582.7117313251723
-1221.028587744031,-96.09948351373814,578.7399366756233
-1213.4011104709562,-49.836896391734186,566.924484915848
-1224.2304966527815,-3.220365772205595,578.3789571362291
-1208.0577975149517,66.36608831762122,586.235870557224
-1227.2692509674557,112.8713678983139,577.9414988808616
-1266.7832542203507,109.0606884104154,549.8901255780517
-1286.3006225367483,113.0100493032789,541.7354550228672
-1341.3143122269075,117.02161288513409,509.50120581442195
-1365.083897151423,140.20690041961325,485.518500201394
-1435.5666817924573,155.90951038326037,449.08913849275757
-1432.4259558564852,190.45851539516556,421.5466035802237
-1413.9181065909358,197.84228049333873,398.2511866947429
-1384.3769279009653,208.86847190426906,359.4101961424136
-1349.9411113887006,212.40076886602458,352.0651802603336
-1289.125236446697,227.16014133266714,325.4536462502486
-1246.9599710400598,234.50209806610823,318.21162170567936
-1212.0856765562146,242.00618967741283,322.63311120515164
-1158.2242661867203,229.98271581019006,323.4804953781363
-1069.0194918754112,252.61327772480922,336.51450801242015
-1022.2349120239837,252.393019022806,352.9146038657442
-991.5669469186727,228.94260527295253,353.45301402619657
-968.309259533072,209.48947907797265,361.7157744999567
-934.8544100176922,189.60399320869004,330.887713949208
-897.0290568134889,165.95779394594487,315.8356829294408
-837.0636251931089,157.33303421657754,269.6670116706521
-779.5342956055331,156.8190972452367,262.6809358955403
-711.0175238231201,171.5183064553135,236.18564953373482
-677.5912263617035,186.38372940810575,197.3905462109895
-662.2332804780431,217.1455084050109,189.66721561389468
-692.8696343807519,225.15537925795252,193.10569868405625
-724.189198146156,252.30430371227692,172.9224556805841
-712.5746304803374,279.26152151856144,169.0801649900833
-720.6630194816784,283.0874967496546,157.17293877114
-723.9444662550413,287.1225138044083,172.80824746473058
-769.8592281767985,314.59468829824664,175.95203254934154
-823.6992245058202,330.48594576129466,175.09241178180116
-873.2207226728804,334.8788832068036,190.0343134505667
-907.4933845910685,354.55838640106464,197.3038703328864
-899.9505437636707,369.90511540638244,189.51527789816097
-915.3105290797572,377.7620288273774,189.2593291287035
-949.4455293091933,378.1668561639296,204.4449429723708
-980.5733864265576,374.46732574324574,196.14139385009153
-1022.9079247245493,363.2229150627381,199.4707672854645
-1054.2540011114907,347.8833240709111,187.27904024310038
-1084.641544258233,313.47402018018386,206.56289354672597
-1142.938720154181,302.2112546078427,193.95308285704093
-1200.7362351057702,264.0391978912269,201.06560344256198
-1243.4215557810262,221.81071007938493,200.5690016468417
-1271.8104551503318,194.6291547062453,164.91360454385548
-1273.146283389333,159.53766066903583,133.6154548189239
-1267.0483804357248,105.0083361800411,98.5688282950855
-1212.799477905299,89.21915230991216,111.20821075494692
-1174.7640631612223,77.21280967506743,100.04496948499234
-1144.2847455553122,84.60962714076673,88.70266604803884
-1123.3805631892646,84.87128632101687,136.1107003920809
-1100.5083285321696,107.80235860360064,124.602183212412
-1099.3050634008557,104.2415095878817,159.95370488393084
-1092.503556260293,111.6803393615557,132.55800910606578
-1086.7625539812273,108.26021118322771,187.60025085018842
-1055.8855470522553,115.76022392968038,188.03770910555593
-1009.3426399433039,138.64979376239594,192.5815645505856
-1002.1261083040591,126.88124894841768,180.95578000642422
-982.4771965961874,142.27590461574547,189.0472281564041
-975.5339489020207,130.43903881549767,169.56860905609972
-949.2150734450603,153.2378539052582,146.33743429203653
-937.6545507385296,172.45746508746618,142.52165622307314
-914.2337087588525,156.90679283955276,154.69910723845555
-897.4022729474387,184.1770635232215,190.18013286902257
-923.3397745407453,176.92178266788355,221.2131563785799
-957.2310625952799,192.8354738876171,240.2747115477763
-1007.0798896667059,170.11211779761695,251.37840139089295
-1059.8012573100907,132.21742389093117,293.8883308775168
-1075.2703522609659,105.28977785482301,297.67147802766493
-1078.6558100880525,93.85029546277272,313.3577725319044
-1071.1914874090542,97.59112439008224,305.6079293132721
-1074.4545792905835,86.18570051954542,325.22115095368963
-1048.9208853176162,74.02925565815035,286.397495576981
-987.537028444984,54.17527901984879,283.45969316739155
-934.7881284638486,38.01022775361617,252.90695599414687
-870.1248642502793,33.43037632626841,230.34369534958424
-817.4310289446449,28.83726858815192,195.82732125649434
-767.6087144947562,28.381965299057278,188.72601754931605
-694.801996604345,8.404592801823254,182.0346397597549
-637.3001993545197,23.330495123207214,171.07167075402918
-578.3524445146917,30.895259849183976,203.32529457052107
-544.2449766230059,45.93128132440742,184.16278749623982
-517.4611105729276,37.95139012812735,180.6661806019385
-482.2085013740677,60.998506115748,192.8905385631179
-458.8967690291792,87.9010671330169,193.14852676500132
-447.00993713449554,114.92711578367742,197.1600903468565
-469.6670116706521,122.94616408253584,208.56765562144057
-488.74386258304315,150.17564611768546,208.19036062263876
-514.0552584215812,193.28210958890145,246.91204437804961
-554.9713714673206,209.426256672768,285.4909678636436
-607.6111618136673,241.06601132904717,315.9927192262394
-661.1513615760734,280.20373929935306,318.9835468789036
-728.579076443026,323.7058526612044,364.92176227355935
-799.9408564596473,374.9414937822804,406.8504535187858
-867.450148623638,406.8371972080171,452.8274181295346
-962.2868155792244,446.5755380277669,486.59430080608576
-1018.4527845900487,447.4331193628813,532.8455690781257
-1102.160268797194,444.492257804653,562.998577495883
-1200.2263769992812,457.38554960154596,620.3555750434655
-1277.2149510791148,430.9677616719268,627.1407667246206
-1339.1729081796536,408.19749863612964,622.3644159830319
-1403.4252267593931,374.2603233520112,664.6877374026809
-1450.4035526912862,328.0906323770095,652.3654866850557
-1481.8821921859148,274.0976786160412,644.2271315892788
-1486.8482101431173,192.747778293301,628.7284648682273
-1460.4987431997677,122.86866565034953,625.4347815003085
-1442.6231179862646,21.961730050526942,606.4201332769092
-1417.3137615801525,-40.45397765801778,571.6875793466679
-1380.6345693993364,-110.73098356727326,533.2279626579924
-1366.4707112010728,-153.64472067423637,506.1126888386962
-1294.6419011589076,-177.73041762477504,471.94811683908375
-1227.4120112372727,-171.0757496188811,410.13903830563964
-1181.1372894923345,-148.25450077243505,406.8300591945262
-1166.4329817011928,-113.79523078727192,379.4618957544116
-1181.0353178710368,-55.54241254658829,390.82051465077274
-1191.8545068907324,-28.235228136009752,406.26513641253644
-1174.3969653245504,30.087032778777672,453.42497183033964
-1168.0441333176977,96.33860696568146,512.1657242789332
-1146.2935864948786,177.91192711068513,567.1610590772589
-1141.103230970821,232.28319558666826,594.5282028011605
-1109.1555220182224,294.1167473092239,614.4208266839339
-1100.8550320445822,340.5495250671738,622.2379711726228
-1074.4035934799347,382.6923567171257,598.9445937195679
-1047.8603804561192,436.4405785869793,575.6124670504199
-1063.6047987844984,467.3726501914518,559.5743704527031
-1110.5831247163915,479.13099784330024,535.2837105433558
-1146.324177981268,482.9936828580607,503.33804102318334
-1155.613792681497,490.3805071048727,456.07827341650824
-1155.5016238980693,486.5453544278628,460.017437147242
-1134.5158642349836,435.62888448144884,409.48336078069474
-1124.7469829146548,392.60807717212305,366.6042940249729
-1117.639560910199,365.36431910999175,355.02847557524746
-1088.2615368143047,333.8683444397425,320.25309356406115
-1124.0331815655704,295.2445534407775,296.29995972120963
-1105.851641488174,275.5120250034416,269.1673507262929
-1091.3104882911086,228.83145620573794,253.84407519387358
-1057.6700504249668,197.4089011028231,230.90555898293505
-1011.969428907935,158.29666603784167,223.8735959782393
-938.5345658303295,130.7520916928819,236.84030734246662
-904.3445009253925,118.77552477145612,225.6183304186445
-889.5851284587501,103.04538247005858,210.1941029811404
-924.9203346708613,107.01105882232976,190.02819515328886
-951.1851651685337,111.25919656559581,209.24372747064493
-963.6736296288743,114.97708187811334,181.5716885990629
-966.7633697541976,126.78437590818477,201.10843152350702
-962.9649268608547,157.63588993183197,193.21276888641893
-986.4948784753204,157.71134893159237,181.0863036816854
-1032.8195663146948,165.77220559518287,176.44047661535797
-1059.138441771655,200.9014291322725,187.70120275527321
-1097.9182493512058,204.9996685922308,179.256932795603
-1121.881580356187,201.1043526586551,155.36396220931718
-1137.2181121993751,212.82904967547537,155.094757129091
-1157.0311982175363,212.84128627003108,139.09948861231922
-1185.0122111016506,205.07308815956523,111.23370366027136
-1178.6185904462789,212.40892659572842,72.05885801981309
-1167.4628950763004,212.2162002314756,60.45265202694091
-1187.490121499187,219.89772246383833,36.578954077080354
-1188.0917540648438,231.33282007617285,16.90832241387222
-1207.6601081918902,227.54457434495984,8.778726680364855
-1202.9082306394132,239.3263754697068,32.35794078507952
-1215.3181769513546,235.34132450938907,8.637791702569176
-1227.6669402905175,219.78453396419778,-11.117863898477056
-1209.9748639953502,188.34362396944934,-49.993014943941105
-1199.4513926774182,176.40886541275566,-77.26746646408306
-1166.5961362952692,167.95949687202054,-127.76738233749548
-1175.6716105907728,167.67703548102565,-167.1478027664901
-1136.5654938230691,190.69406984036343,-154.86634069738395
-1112.2962479541945,237.14520249014703,-131.1120515160631
-1072.6190901072234,264.1687018502751,-103.13613721301363
-1046.2798203260033,295.6922088582748,-16.506146339473727
-1018.7892909403314,291.7520254113281,-0.38259956254174465
-1005.4840337933954,307.54844926656915,46.85881519173215
-1007.8375388129484,307.9542963193344,89.99301494394112
-999.9673690811849,292.4882605170981,98.01236915766344
-979.7188642400822,315.75716478104147,121.78470731595398
-952.6902662988892,342.5950757904076,118.17491192201213
-944.0838614613555,354.3473051449782,141.8119337388405
-947.2827112214671,369.98873213584665,157.40951293255088
-943.1844717615089,385.4680242488516,161.34357808221975
-936.4676010666233,405.4656789015617,239.86886449501108
-950.6549127377851,425.20228620374957,270.98652445024555
-940.357818419134,425.7927018910638,345.70622995620323
-942.900990654301,399.11794547577415,388.9289410756987
-975.427898415871,376.7545492089552,455.23598782458845
-1024.162175666512,377.4836463012344,493.7496494725519
-1050.3688823400448,389.469390668577,512.9396888845835
-1056.5381654285613,350.2980120632428,454.1102211254608
-1039.0398352138602,272.4671523914895,419.31342507380197
-1045.97390546211,163.59103261562308,352.8585194740304
-1052.632652332856,16.16494929461131,302.2357277969541
-1022.4898410772283,-80.79119780964957,303.0147909836693
-969.9550815008184,-205.1434485782607,288.522584164827
-904.9349166127068,-313.9053601382736,297.7122666761841
-839.5874228202292,-434.1706902968904,318.72046009595533
-782.0020088409397,-504.18542519616796,327.66846986483665
-720.9740329266366,-516.4046845762824,312.92541285760177
-674.3515879530727,-481.9087048074521,317.4315388027512
-655.0850698250678,-443.43889095664684,309.74083912447173
-627.540495480108,-343.09473673476674,305.8903907042671
-611.9367979891197,-258.2043817205672,294.064741782362
-585.1825037092177,-173.5057333544075,270.63166320812917
-589.0380507104874,-96.23867477680963,254.61498065088486
-573.9258564341544,-3.74778339188204,227.05714999515638
-580.7620339259585,62.18260058225796,238.5055039182596
-594.6505687467178,163.09341110368985,261.50520310197675
-616.1094767326254,244.78899522262958,292.3047115987621
-645.9851223404528,341.8139731712665,299.37950268440295
-663.2907261909012,427.4160901021246,338.07773296691533
-701.0355218142792,501.28841143509766,345.11173540403706
-725.9114988298758,567.6749960485997,391.61079471583065
-731.7922022301194,633.8454008249505,430.54559915975386
-737.1008448348825,684.7108849607155,489.16398566279014
-767.1110929828229,704.463807722311,508.27142806157053
-799.9928619865093,728.3537191599579,554.7929211300496
-842.2437835550367,728.715718415565,558.0835453493294
-907.0702023626826,671.4647713541322,588.7025640764176
-968.5886617754279,652.6652832516711,595.6937384325943
-1030.820922537258,610.5173530206544,587.0547026762453
-1069.0806748481898,572.2637190070004,602.3096572223951
-1134.3425124787773,549.6606894301316,613.1818714851657
-1162.3745111735404,476.22582635252616,597.3110083463772
-1229.165923123595,372.13931362901707,580.9629180199152
-1218.4996915358458,225.07278224470133,585.5434832486119
-1262.1639397755605,62.87967858544968,581.5125450587102
-1274.9817725726932,-95.68292944073666,577.9302820025188
-1287.514084830192,-215.55781026140428,574.222593852131
-1295.7126031825344,-304.44545283047734,578.3249121769412
-1278.1123013465356,-347.49175304512755,539.4869807732509
-1263.9178516618827,-367.2283603473154,508.36932081801643
-1226.8613644822647,-325.41489703415544,457.76284460034776
-1197.2895943059048,-271.90120989328676,410.9303380869104
-1194.3936002610474,-214.24135663044976,371.5325824822952
-1210.7600454793433,-175.74299072568107,335.83639673078983
-1237.6805535019605,-148.48801578520698,331.41694666374354
-1245.9606491513414,-152.43431752943158,315.60726649773375
-1256.8716126302052,-117.42338107304738,327.09946821799497
-1260.1449016738643,-94.07911978096497,338.7456470864159
-1263.4283878796532,-12.806208032304612,338.4223970469019
-1293.2550871092576,53.336970321159626,353.4509745937706
-1292.357736841837,142.38603396674708,361.0131900292149
-1276.9090362152215,223.37291531766712,345.2728505656876
-1299.0266808747128,308.7659904248648,356.42752621945317
-1348.819423554425,371.01864551095434,351.54716442414076
-1391.3517867977343,448.5497086160922,331.02537563796
-1410.2063395756961,487.4192512223849,334.536258559243
-1401.71210352159,522.3149597467026,350.243967103955
-1369.519662677877,561.0386829345393,381.9928313950228
-1330.790840908975,587.8215292684047,382.4822951772522
-1299.6181162782398,579.9493201042151,394.7494812193767
-1285.2911034859,540.9370172281054,371.5488979417029
-1220.3555750434655,478.4977540750409,368.80688104500524
-1183.4520452957943,400.5516664712211,338.2255918177972
-1103.0984077131336,337.99309652123816,335.71607021765846
-1050.266910718747,275.50590670616367,317.09503245246856
-985.358914614063,209.19784024106096,314.3662718665396
-921.1035368856848,165.8966109731662,288.0025288962082
-884.2866830161166,134.27317177629467,245.48954026094543
-819.595886464797,114.25206365068603,226.90317284699668
-789.4500160605304,113.84315744928188,207.73352775922464
-775.0720174575416,101.87882712241185,180.51628231863074
-729.2673848867861,136.16882421622066,161.46390459535112
-733.0943798340923,159.37756522359828,157.40339463527303
-744.1644190421807,190.48502801670298,164.98192553012498
-752.9074658522534,217.31784044500418,129.43869721056632
-786.9619085008643,229.32805800145823,144.58658155435344
-806.5292429116978,244.84915847919527,132.46725436311078
-826.016019741706,271.97666889304713,120.3101976719879
-844.9011640060572,268.3587157694014,131.81361627059192
-852.6081791437445,287.72822523491715,127.70823879714276
-879.7193740981886,307.21194291628643,119.38735449924287
-902.8128871734997,291.94985035664575,123.01754421744431
-922.0794053015047,292.0977092075276,122.72794481295855
-938.8027511943427,280.30367148822484,87.19583140012136
-941.8098943064147,265.097663320298,114.6742261628589
-941.8649589819154,257.3600566962215,114.69971906818333
-942.2463328455692,241.8165224617989,106.89685060647624
-930.793900057614,226.2525939031168,107.12118817333138
-934.4567206946308,195.43473051449783,118.94377794659746
-942.3809353856823,164.54446727475744,118.92950191961577
-950.5774143055988,133.58588304874755,111.06239133649107
-942.7888218708734,125.82380323555957,115.13003931006003
-932.1276888641892,94.6133491049441,95.77144080802313
-939.0434042206055,71.70001988446616,123.21740859518798
-928.0008973502676,75.34265014046592,107.67183492833946
-919.3404475534461,75.52252808043522,135.27351338122602
-911.6334324157589,94.77242483416866,131.39961148812287
-907.6443025905892,114.08584990797063,131.394512907058
-895.8380282767308,110.1966522716728,139.43293581396298
-891.5215695471951,137.31600495582083,147.25619859992966
-913.4974736530824,164.81571178740958,174.30621058159517
-947.0879454247885,184.6665273054509,201.20836371237885
-973.6535922052894,204.2868869593592,208.59314852676502
-975.571678401901,227.97285515441058,259.50451989211405
-998.7202561527129,243.59286810480646,255.18092314908765
-1024.2743444499397,271.1894479766282,290.0266655789694
-1058.169711369326,287.10313919636167,309.08822074816584
-1088.2309453279154,318.42780154283065,324.23100651088805
-1117.7823211800157,307.4016101319003,363.07199706321734
-1126.1439941264348,311.15926437672397,343.3109165719181
-1128.8768335772154,296.02157719506664,378.64204391917735
-1124.6654056176167,269.04804392937444,394.4945521661322
-1131.8849964055005,242.19789632545266,414.10063579305887
-1150.790534994111,234.7111398897687,425.6162909862186
-1206.4364487363168,207.67030535402,381.70323199053706
-1232.204677438269,165.69878602784846,424.6292056920559
-1272.7893827147907,126.86493348901001,373.1325172204576
-1272.6160309585844,111.4580412271265,381.0363375872495
-1278.275455940612,49.246582676041264,341.91492507635127
-1252.4664385901406,17.849112591965657,314.9352735133813
-1195.6478512030105,-25.32424426282166,296.30913716712644
-1146.507726899604,-45.25990016978276,273.5643670366537
-1085.0188392570349,-68.94831568374522,274.56572835779804
-1024.774005394299,-96.81338683444399,240.24004119653503
-990.669596651252,-139.7052000428281,233.04696303018875
-916.9900016825318,-151.7398907883936,249.88961571994517
-844.3199257646597,-133.13312905018535,231.29203142765374
-805.8674470894751,-106.41758398637661,223.9286606537401
-763.2891966165818,-79.66420745106637,224.47624826010926
-719.9206660786305,-37.264509287065415,244.6064660205065
-690.1571892542306,-14.598053361749427,209.6536533882621
-676.742822472506,35.98231812086697,252.854950467285
-676.0086267991619,101.81896978071005,260.49262490248964
-684.2611901107922,159.67022377672296,232.70229895020216
-688.2523593683879,217.59418353872118,216.74781908194953
-695.9338816007505,279.45016901796237,204.65092564739237
-718.2921792865046,330.02503403302865,215.9187898007985
-728.9267996716515,403.72196417736944,227.28454671065043
-775.0597808629859,458.1727705179649,218.56087450862427
-797.3089689139514,504.91350257223417,233.76892210897708
-822.3481005236243,548.0882870297197,280.343440420531
-852.3858810093152,583.2817526882269,295.47296987248455
-897.1004369483973,607.1930781663464,333.9692963448272
-930.800018354892,630.8780266451847,356.9322857448772
-972.8072277485177,646.7488897839731,364.0978315734732
-1018.720969954062,635.6023718599115,375.2219157408494
-1043.6999383071693,628.5857045984103,433.7403700550137
-1058.3226688012728,605.7328445493621,461.0708039952482
-1088.6388318131067,582.9289308785366,480.3169277989936
-1134.0569919391435,544.8721020939873,511.1623235253629
-1171.6947173601588,499.0531934962501,546.0743475090883
-1182.7076524603203,441.351531868681,573.576093773103
-1213.176772904101,376.02647183288894,596.8878261179914
-1216.6540051903557,352.9798657033748,612.6128698383241
-1217.3576093773104,271.702365231756,608.9510689175204
-1191.640366486007,228.69889309805086,582.0091468544305
-1189.060484467173,162.69572178062847,558.7229074148664
-1132.9760927533869,150.23275022561222,512.5093686427068
-1087.741481545686,103.27991719904351,493.7221171348014
-1112.2044734950264,106.9855659170053,454.0979845309051
-1184.3595927253446,142.57468146614798,476.44404562210343
-1286.0151019971142,146.84015438503465,431.7366276965121
-1331.6270082036172,139.63178047549368,450.70029010926265
-1338.6834443974244,116.68408681863838,474.2200445615985
-1343.0580269510997,120.44581992831397,458.4429953144041
-1361.6372563515574,120.76499110297604,477.78701187459535
-1335.3795638673757,135.82619956866006,454.58234973206964
-1314.3632127179008,170.87282609249846,497.94884083759496
-1264.7846104429138,193.52684148001615,478.99231643833525
-1226.3922950242948,231.8141261286984,467.66428902836344
-1207.2930103552183,305.0001784503373,448.0806391581223
-1261.9192078844458,363.1739686845151,415.6689593286189
-1277.7146120234738,405.6777798738612,395.66620609484386
-1294.2748033222356,417.09554231057496,360.05771593765456
-1283.6391632208758,401.32563107687133,336.72253011986766
-1275.4202505442736,378.2249799880694,356.5468330163716
-1268.0375051623134,331.7412164194705,356.81399866417183
-1238.6492839042896,280.9358955402712,326.02876619436813
-1196.2902724171865,257.43041711491696,330.6674552472047
-1169.9204111495774,230.03778048569086,319.38123620196507
-1132.1501226208748,217.96332080781923,300.36454854613964
-1104.8421224373258,186.94253389281766,316.57599690006276
-1075.0766061805,132.37140103909084,297.58276271713584
-1032.4116798295036,93.49329281660916,314.0521992729424
-998.7161772878609,69.80783447966432,291.0892098728924
-921.5644486139507,42.20013970112118,300.1871179250815
-858.8457832185303,57.43826892975686,328.54746524042366
-838.071104811531,52.809573095807444,262.1557820458567
-814.3779986029889,75.94601622368495,274.2057685346168
-806.9442674103798,95.12749001952757,262.4790320853707
-826.0751632820587,114.62018120357105,262.1262102756803
-856.5758949284416,141.973048900491,265.5024906568502
-850.6146339473726,164.64745861226822,210.57037826372922
-854.2234096251015,180.1858942656259,214.38819576511858
-874.4178695069164,183.96394283470912,186.60092896147006
-881.8250880779881,207.27057659853267,190.3361494496082
-902.4559864989575,207.07683051806686,150.78135754819436
-921.2055085069826,222.80289395461247,162.22155374159374
-922.1609825985429,241.8736265697257,130.74597339560404
-937.683102792493,245.82706632744112,126.57533408452429
-931.2854032722695,253.16290476360433,87.39997858595954
-943.2272998424539,237.7091055559238,79.42396231128878
-939.4013246113607,233.8097107574962,79.49442470160555
-947.3806039779131,233.80155302779238,71.52575038366824
-954.9785094808117,210.71721739839805,79.33901995074771
-970.5822069717999,183.75490101104864,79.19625968093081
-970.8004262413772,172.1148404399056,75.30757190273948
-975.4166815375281,160.36668995018687,55.65498921650105
-1009.7709207527546,129.82211050664603,70.94196285173837
-1010.7529074658524,145.023020093508,39.47902698678958
-1023.3769941825191,129.3979085620472,11.870312492033468
-1031.0860487526322,129.4570521023999,11.754574701860474
-1032.013990506442,113.77789561165129,-11.754064843753984
-1029.0058276781574,128.9828840633652,-39.23266354973411
-1006.0173453727829,128.77078309106577,-42.81227534377184
-967.3466474280209,147.81602280085454,-42.29731865621798
-921.1606409936117,159.0308617111858,-45.56795643772339
-866.0674134388402,205.24440048334552,-21.350818067331865
-842.1295753391832,224.58025931383295,-1.4344042053096624
-871.703384947969,286.92366914287754,21.4600296737418
-900.7041140450615,295.3434659134363,72.01725359832359
-944.9281864857011,311.65484645623127,126.24494603151945
-970.6760208633939,331.48016906894816,157.18925423054768
-1017.7716141597796,371.2378844967446,234.84166356502988
-1057.7312333977454,387.621664890661,300.90601785523097
-1106.9325406739306,419.12987615546604,319.68613134964545
-1166.6981079165669,435.52487342772514,369.7562368392877
-1212.0448879076955,428.3838007882407,396.5727338081812
-1199.8592791626093,440.0381373863654,412.4150448930063
-1168.7579346667824,420.5584985698481,424.71996043501093
-1144.437702987259,397.50985300790796,464.40833516032495
-1145.1413071742136,354.8510449541893,452.76827458918194
-1145.0903213635647,323.9699591603657,460.7220610504097
-1139.4003048951479,250.02829712491018,417.8858223756329
-1125.5627558850374,218.61797861655103,378.95305736413565
-1135.5355804479614,148.59610570378265,328.01925224210106
-1121.3207364390491,74.79985520029776,308.85878460024577
-1110.2976041767577,-2.66391683194567,309.28502597727055
-1057.4151213717223,-18.79479740788139,282.65921594020386
-1003.7392993529902,-77.20801700886645,287.5844452488873
-949.6810837543914,-100.76856010972148,296.3234131941081
-884.6894709202431,-155.47103241167986,293.55692310829903
-861.7866447767587,-186.59888952904407,294.0045785257963
-812.2355748395222,-225.74171608041482,287.0297196290273
-800.97586841582,-229.7675556892517,279.36247342364624
-769.3575278000133,-214.3596437111552,299.40805473836633
-745.1464057552784,-194.9554638943982,327.17696665018127
-725.525026385157,-164.12026533015865,331.2915215695472
-728.5342089296549,-121.39823487123535,346.8014051689415
-727.7714612023474,-71.00182019344017,358.4159728347601
-742.3686987911265,-12.749409839241741,369.7745917311213
-760.6277373007092,53.30454334558692,384.9775407504092
-762.1919819714175,127.28505656875693,435.72371808925584
-776.3538007372549,208.81748609362018,454.8597125419996
-779.5271575920422,286.25677473959,458.4756262332193
-794.2600174371473,325.16506656197583,469.89746753478516
-785.9809415039796,387.0394069330506,473.73771879286005
-792.9527412521096,414.31681563021016,489.23944466255045
-800.4690694579699,441.4575823548307,489.03550141995487
-835.0405082265606,437.89061504183394,492.45460988206986
-869.2315928477107,449.86718196325967,503.675567089679
-891.5338061417509,430.94124905038933,530.8775167870782
-919.5433710798286,380.6855552099851,511.00426751235136
-942.526754804138,361.58932968954747,518.5736209612866
-941.8986096169436,315.4033232551381,546.2120091978403
-938.7262724783693,276.5837467432814,534.6157964238554
-911.7506997802512,218.44768600898374,546.9900526683424
-927.6001488785672,175.97650573845303,542.9713510729964
-904.69630301887,125.53828269592573,547.4091560318764
-897.2615521100479,86.7919218081608,547.6518484905652
-892.8624963672612,48.28009564938078,571.3949207935432
-896.7700488953925,40.57236671034451,571.3622898747279
-916.5821151973407,21.274951181086305,559.3571708993388
-978.4829681899528,25.551335063451845,550.566197427256
-1028.0880830864771,18.337556657982084,565.5458285959018
-1054.8658308392776,26.31754982588346,569.0424354902032
-1093.6456384188282,30.415381399356562,560.5981655305329
-1121.8203973834084,34.184558437386876,524.8418165224618
-1141.61308907731,38.06529242911698,508.83431141113437
-1181.3208384106704,45.792497947821126,472.89135433608834
-1228.2379813697848,65.28794236563965,448.57520152141666
-1281.8036740375155,81.2478267298211,455.5684153100193
-1316.4128423059863,112.43085049430745,451.0204810001377
-1345.9030351853082,109.14226570745362,489.83597864714255
-1344.9750934314982,144.13178812336528,509.35436667975307
-1352.327247327069,155.86668230231527,517.0542438039495
-1375.6685514421338,144.4040523522304,512.8183426552391
-1351.6746289507632,171.47751780679437,532.7099468217996
-1310.100798947653,170.9452259436199,509.7867263540557
-1237.2420755303801,197.32426465714593,495.0905762926178
-1204.5805652286972,219.72131155899314,432.710456679906
-1216.6336108660962,227.4109915210597,416.8049231898763
-1221.4670657156116,242.64249259431102,385.2844753305156
-1197.881029709432,269.61296671136427,393.396317804755
-1163.2514671167016,261.60819443948753,393.94186597869816
-1148.7409054060256,230.3681685386957,374.6416972156649
-1118.373756583543,241.5993229084346,359.36023004797767
-1088.5572545160683,233.38448909668443,332.36222359317406
-1065.37910499508,221.63429917453976,336.67358374164473
-1049.859024233556,217.68085941682435,340.8442230527245
-1019.6315765322512,209.56799722637192,325.62597829024185
-988.9666705755789,205.42692968546854,322.1742389093116
-955.4312634793737,197.14887346851373,291.3074291424697
-924.8489545359528,200.71074220044562,283.90428943624994
-882.2696843468465,208.15467055518454,288.4420265840017
-874.3444499395819,200.4262413770248,296.43558197753566
-832.8562760983618,188.28753957773554,273.55009100967203
-822.6315816308321,172.41565672273407,238.4351434995641
-791.4221472164297,168.41123115436977,250.69009294713283
-784.0434806993214,179.85550621262104,238.9888494032111
-800.0836167294643,168.23176110088565,223.08841449424625
-819.5693738432594,176.04992530578744,214.92150734450607
-823.6951456409682,176.01117608969426,207.01054896422326
-831.0483192527521,187.74505055243128,214.7104260884196
-851.705730295259,164.37315495097715,179.15802032294414
-847.3076942686852,183.7895713622899,190.9316637179873
-881.9882426720645,164.74841051735302,194.4017579907512
-896.9933667460347,184.27903514451933,201.95989456134362
-924.5399805234204,161.17328547465243,189.85178424844366
-924.51244818567,165.0410690704777,189.83852793767497
-928.6117073618412,168.87112316642282,181.91533296283646
-924.3482738753805,149.63519652480716,197.7423483044669
-916.2598848740397,165.118567502664,205.66044469824052
-901.1191385437434,164.9309397194761,198.03908572244347
-919.8676408355557,142.0393304543346,217.45856128239515
-889.4760188239615,137.82994192716168,206.1539873453218
-889.9940346601542,122.25173734149787,194.4252114636497
-882.3410644817549,114.45498717706863,194.56593230104065
-886.440323657926,118.28504127301373,186.64273732620214
-879.7693401926244,106.37985448649643,159.31026395354175
-875.3988365038011,121.9274675857709,171.09716365935364
-905.6527968266433,106.86218025523497,190.3177945577746
-901.8543539333004,137.7136942788822,182.4211122044735
-925.1110216026882,118.54812805596204,182.13763109726565
-929.319390413648,126.21333482891713,170.27425267548045
-924.4298511724188,138.02878658869238,197.78007780434706
-899.5916036567024,149.86667210515316,245.2080985861635
-899.5916036567024,169.1760183141032,241.21794904478088
-937.6902408059839,173.4455700978418,252.40729504978768
-940.1263428387881,200.86369963239233,287.59974099208193
-958.7942875497749,228.1961730050527,299.0011879693881
-1011.652297165699,228.8865208812388,329.6049109532818
-1045.6272019496976,233.19380216485754,348.7041956223583
-1084.1010946653546,221.91981971417354,352.0906731656581
-1099.2132889416878,225.9762508093998,359.69979554689934
-1099.7333442103065,229.70739243268602,343.98087012384457
-1082.5001402109795,237.77130824491547,395.2318069881153
-1051.7760907139543,202.74813519397554,399.7348737846258
-1024.4171047197565,218.0836473209506,407.9425695828851
-1018.1305542667477,171.32558009106066,376.7973772899003
-1024.2029643150313,152.48632305629346,427.78930623607454
-1032.2587223975568,121.56138946531182,423.8491227891278
-1048.5741818052036,109.86932336730689,400.09585332401997
-1067.7652409334482,102.31526566156641,403.75867396103666
-1098.7748109701072,75.47195015627152,403.38443811087376
-1106.9733293224497,63.82271213921166,391.52717798636644
-1073.3532857805674,47.840495989965994,364.612788261027
-1063.1561236507882,8.790402431003454,333.50022688685743
-1048.839308020578,8.397740308872041,302.3193445264183
-1022.1125460784265,11.989721260573184,294.85808099605885
-977.0665823701264,15.193567630128536,260.19996634936496
-926.9444713536225,18.67549061096297,260.939260603774
-866.3804663162243,37.23514146013165,226.46265544299024
-819.5663146946206,40.88358409854538,242.84949498554556
-770.1814585000996,55.76644419857954,219.9915363554323
-746.9513034522494,51.7533510424049,224.27740359857853
-712.3248000081578,63.05751709299303,220.83382194735205
-693.2754814335171,70.57782219208394,213.24407417415733
-688.9049777446937,86.12553726297972,225.03097387996922
-684.0154385034646,117.25104903305412,248.54766918366622
-691.1769054672086,136.75618075489595,260.14796082250314
-690.6599093472288,190.95307775845984,263.897457337623
-702.3030290670108,218.0550952669872,255.78255571474463
-728.9237405230125,268.5565407147191,255.21355406790295
-724.3900822401126,345.93566610412324,258.94469569118917
-781.7287248958617,373.53122625973197,265.84205615577184
-808.2953913925755,431.77027833154034,265.24756160360573
-836.9698113015148,467.30534892139525,319.6433032687004
-875.0409161130458,494.7530502261221,326.8292434215558
-919.8105367276288,530.2361152891151,361.3609132578404
-956.1369070987546,573.5689557596122,415.614914369331
-1005.686957319778,574.0920701768699,430.56905263265236
-1019.6550300051497,566.8500456323006,473.5551895907369
-1019.5183880326107,547.5753697745918,481.47226626829763
-1049.440940586235,540.314990338189,508.5202388175372
-1056.2832363753168,509.69801104352666,539.9183207313405
-1059.3933708248994,498.3271555526098,563.457449791723
-1113.2649783565237,452.42157107676945,574.5794945266732
-1101.7319879877432,429.154706245252,578.755232418818
-1128.1018492553524,379.3089383224649,606.0010299133752
-1154.961174305191,337.0631153350023,617.5146456741089
-1205.5798871174154,263.94436428342,617.003767851407
-1214.8695018176443,213.4031499033819,581.7134291526669
-1231.6642278453908,132.07364390490127,558.1875564030531
-1198.8395629496313,61.82661765230737,519.6708356064509
-1177.6804515303393,14.812907567823878,473.05043006531287
-1194.4037974231774,-16.29149607664187,441.5085681654796
-1249.0299949524049,3.263509965176692,417.07616770252844
-1307.1334247678872,19.08215343669857,404.37866141852726
-1349.3088873366544,11.740400646500081,411.62068596309655
-1356.3551263683319,8.10222655035104,431.1502908740498
-1341.4876639831136,7.846389949677006,415.67609734210976
-1328.4556907812557,23.574003354866342,455.06467550080816
-1323.6528274181298,43.09310518882595,478.6180805881724
-1292.826806299807,62.164449633666955,475.0908822074817
-1218.6016631571435,108.19494934559712,495.6707948178023
-1162.027807661128,165.36839797484362,449.22985933014843
-1122.5953817052716,215.5017258696905,465.3495332249035
-1132.0481509995768,257.6037688711232,406.1968154262669
-1151.2901959384706,319.5494893771064,393.92555051929054
-1132.8945154563487,330.7673874360766,366.69096990307605
-1132.7007693758828,338.5396644113943,370.59240413392956
-1133.1698388338527,350.0084126587571,354.84798580555037
-1110.6952934998192,334.2181071007939,339.53898630011275
-1099.437626508543,330.192267491957,331.8727598109447
-1056.507573942172,330.00158056013015,348.21473184012893
-1022.775361616862,310.1844156771171,325.2384861293102
-1003.2100666384546,294.66331519938007,337.3578133205529
-983.7518418624097,282.977367398653,345.5379767810619
-988.5863164281382,240.27981012884115,325.986957829636
-980.7691719394494,217.0761677025284,334.03149903381893
-942.8887540597452,201.16757506385974,318.9539751087273
-893.5569231082991,189.00338035924605,300.1106392091082
-854.8311604880363,177.16753427521124,308.5804020741028
-809.5710563750109,153.39285076963083,285.79076443025906
-799.2933366644064,164.56792074765596,246.66119418965704
-819.3511545736823,168.38063966798043,222.79983480597352
-843.1809027547635,164.518974369433,202.8327716396527
-859.5769197432355,179.8391907532134,171.13897202408572
-860.0398709039276,171.9996125078391,159.38368352087616
-891.3043699938308,168.2664314521269,147.15422697863187
-903.4094211580918,168.21850479011692,131.27520611013955
-922.8136009748488,168.33373272218344,127.05969928568881
-946.2884879138138,176.14679834602032,114.90774117563083
-974.135917974028,187.72159707953278,86.97883578999966
-1015.8698434225756,184.35143499564074,105.9882834607129
-1016.5785461905953,180.3113193598222,86.36812775004718
-1020.2668597329364,164.935018584328,94.21392626432066
-1016.7417007846717,157.0995192038056,86.44399463629273
-1020.2362682465472,149.4944756874162,98.19112540979846
-1032.1261592898697,141.77726338759925,90.18982017304586
-1017.0414973512873,133.85304869654777,82.59334227284548
-1032.2077365869081,130.17085345148448,90.22775361616863
-1036.6333049512323,145.50534586224654,70.48665956264372
-1032.8093691525648,141.60697078003193,70.5571219529605
-1039.7026507522958,161.18042348814328,90.01096194928952
-1043.7407269556884,172.7480842081649,82.06207012588398
-1058.771343934983,188.41092523950587,89.63336103562379
-1078.502852656106,200.0285520539634,73.60015907572924
-1124.420673726502,208.1913803388517,80.73409370172281
-1131.7422361356835,204.48471190467697,92.41066011329049
-1116.1711695635106,208.26887877103803,96.55590849066706
-1077.5851080644259,215.70872826092503,97.1087986213437
-1042.272335609,227.18359480556563,113.29760927533869
-1022.0207716192585,231.14315286055893,141.0593831736628
-1005.5737688201374,281.48858172770525,160.75928069218338
-1042.8025880397486,255.08099096021581,203.4619365430601
-1046.0248912727589,247.5442684300959,223.06190187270886
-1052.938567196749,263.249937542382,242.5282843784575
-1044.9643864112618,263.2591149882988,250.49736658288
-1039.9881712919296,267.37163047523876,281.9545920370361
-1034.797815767872,283.1242065333218,317.3010151274901
-1021.9086028358308,279.5082928421021,356.7528156913931
-1025.3450464735665,279.6408559497892,368.47445355957444
-977.9608734889081,248.67615342650146,408.5350247026253
-949.3782280391367,245.0092539246328,456.07113540301737
-910.5698684056227,225.47149128397572,468.49229859330154
-896.055227830095,174.92211917423384,453.18125965543794
-869.7618452784592,116.61474611615589,445.92291965146103
-860.2733859166996,73.52439416110498,395.1899986233832
-873.5511107258851,42.287631352194694,351.92547913915564
-893.9627701610643,15.115967226320917,324.2391642405919
-925.1446722377165,-15.63000616928309,319.95125756501966
-948.6460717982186,-30.99478415157062,311.8016855909001
-960.3983011527894,-19.367673976332387,303.7377697786706
-986.9364155955399,-15.188061162578455,315.0994478236707
-998.3602963295317,-15.064573529186829,318.85302320364246
-979.0111811882755,-22.916592312359473,323.0940229334177
-944.0287967858545,-77.17559003329374,343.42410507155864
-913.7187520712987,-92.99108258171752,332.1572606343655
-874.9114121539976,-93.22031478639495,340.588274283267
-832.7420678825085,-66.56911381562512,329.35610019731513
-801.5061208465685,-47.39518591975853,337.6086635089455
-747.939408462625,-24.736275894418586,322.6361703537906
-712.4675602779747,-9.358119235416785,342.73885577643745
-669.8077325080432,9.69237201286882,347.23886342430905
-635.1536967262011,24.865269995360293,343.78202546231387
-601.0737611722658,55.342038310738126,320.6416054412058
-596.5655957946905,70.92401584638996,336.3554322831956
-585.4690439650645,62.99460060265229,324.7745152524053
-558.467978361622,85.96452407295051,321.17695645301916
-569.6175554343226,-10.390704267002494,352.73105494740815
-603.3467086109936,-256.04972136254486,541.4366781724647
-738.6508134786089,-413.45515543024385,559.5641732905733
-810.445972885746,-158.6433695502542,435.9653908317316
-835.4922425089098,232.10066638454524,410.7243554118889
-847.8593607399062,588.2783621318189,425.03607246103417
-857.4610086013064,828.2971249101377,431.9324132094039
-826.062926687503,967.2303997797416,420.1597895305737
-819.1747436688371,986.2756394895301,392.7263642528285
-828.1890349915619,916.4923801705986,369.279009651614
-825.2604100278894,804.2359011487105,365.7773041762478
-829.985774958829,738.3948647091515,354.15457878072533
-841.5167258951834,665.1149984959186,369.92754916306797
-861.027975914303,591.8259548367689,377.731437340988
-879.6938811928641,522.6116971646792,409.08261230899444
-906.7755043771318,430.1071211881734,424.68732951619575
-941.4550330642983,333.8285755074363,444.1159825220642
-1033.9922399596194,210.94869297874405,466.69249947739553
-1080.6952425140087,106.91826464694877,474.19251222384815
-1145.4064333895878,7.2136560395242,516.7309937644354
-1226.6880127260586,-61.764312991694425,519.6708356064509
-1292.1639907613712,-134.627013302198,534.6341513156889
-1333.6256519810538,-137.92885439982055,561.4965355141665
-1388.639341671213,-133.91729081796538,529.2622863057212
-1419.3327996818489,-114.33568038015022,528.7361127398245
-1443.0004129850663,-94.98483172133196,508.6925708575304
-1458.133001585659,-56.17861349186522,508.33567018298817
-1473.8468284276487,-59.99663493649717,500.2635966410549
-1473.0106611330068,-36.613318513457706,519.8207338897585
-1430.7026354565526,-9.927977443877369,512.5144672237717
-1398.8365038009924,1.679564377233816,540.4251196891905
-1345.1892338362236,35.94469059260808,525.4148970341555
-1275.634390948999,62.49014699209211,526.3673119770768
-1169.7266650691115,88.19076850912391,465.07319013118655
-1108.4621149933976,130.09947331657602,446.22679508292845
-1140.9196820524849,149.2364874855328,394.65566732778274
-1160.8959226647225,183.96496255092208,366.7664289028364
-1176.6913268037508,226.4687737402681,346.76367566906134
-1173.438432084351,257.1836457913763,323.16132420347424
-1181.290246924281,295.8278311146008,311.1388700524644
-1180.9843320603877,319.07430162185864,314.99033818888205
-1172.979559788511,342.2606088725508,318.9560145411532
-1177.1094104510717,322.9125134475076,315.0352057022531
-1146.3037836570084,318.8061162578455,315.5103934575008
-1104.0569409533327,299.1347707932883,316.2099187796037
-1085.3043597966687,302.7180535656927,300.7795730448217
-1034.6958441465742,279.2900735725248,321.24017885822377
-1004.110476054514,302.1623082296197,309.8468896106214
-958.0315398224675,278.5925876828479,310.61677535141973
-915.6704889029385,255.08710925749367,315.2554644042564
-869.7016820218934,254.66188759668188,308.09603687293827
-827.9126918978449,227.14994417053737,297.04129340804457
-805.3096623209761,192.08496275486533,289.6483508639546
-759.6406520065467,168.4132705867957,278.6384749124319
-726.0491605186278,148.5624550687544,251.7363217816482
-707.1640162542766,132.87004226723704,244.22305272442682
-699.8934396557439,128.8391040773353,232.571775274941
-696.5304155853427,136.41049695869643,216.89771736525728
-705.6833883130325,143.83097184053682,173.56487689476023
-701.8839257034768,155.37313965523396,169.65834408284178
-722.1069376392551,174.59173112122897,137.8941840485793
-738.1746060071483,178.40852890640537,118.01685590900055
-768.5397153972051,205.79606695456658,125.31904371013549
-784.526826184273,221.21927467585775,105.40500578688953
-819.4255938572296,229.15572596146498,97.00570531221162
-830.6598073756074,256.3607348075031,100.6703614384117
-864.9324692937956,276.0402380017641,107.94002029235264
-895.6504004935427,272.443698918591,111.4162328623944
-937.7932321434946,288.2798917061382,114.65587127102529
-979.8544864964082,277.10380201190014,125.83807926254126
-999.0944920028757,281.12148389103317,125.53624326349978
-1048.7271392371504,250.72986187943897,144.51826056808392
-1067.0106509358448,254.98615735240887,171.70287508986252
-1089.8013082959014,243.66118909107598,183.17264305343826
-1132.1603197830045,228.5479750985301,186.51425308336692
-1135.5253832858316,220.976582217169,202.18831099305066
-1139.7368112454305,209.332442781174,194.31508211264807
-1139.6552339483924,182.31914058317574,202.2566319793202
-1116.528070238053,162.83134403695453,206.59348503311531
-1096.8577444897087,124.16676438947042,226.64110578026137
-1078.6252186016634,112.17184257621106,199.48300388002022
-1080.9195800808636,101.00625595896663,246.58165632504478
-1069.2744209286557,93.2137886026319,250.7064084065405
-1092.6769080164993,93.32391795363351,242.50687033798496
-1096.1745346270134,85.71887443724412,254.2540011114907
-1076.9324896881199,101.01074271030375,250.56568756914953
-1064.0636710803385,112.8356778308597,286.04059490243867
-1056.273039213187,124.38192451040877,286.11809333462503
-1047.7482116726917,163.14643634676472,301.81356528478125
-1039.223384132196,163.29225576522057,325.4883166014898
-1019.6305568160382,190.25865101742187,329.6151081154115
-1022.9079247245493,174.9843218632255,349.2405663503847
-983.095144621252,182.7321256494318,385.1325376147819
-978.5054019466384,171.3021266181622,408.78791432344383
-982.494531771808,171.2970280370973,404.8028633631261
-1000.5078186740631,156.31331800359962,443.8304619824304
-1038.631948728669,156.71304675908695,455.0320445819929
-1058.2003028557153,133.6154548189239,450.8919967573025
-1075.0052260455916,110.21500716350641,415.3977148159668
-1091.810149235468,86.81333584863333,379.90343287463105
-1077.0446584715476,51.773235508557974,368.4683352622966
-1077.8400371176704,36.12732176635243,348.88672482448135
-1043.842698576986,16.379089699336674,333.76433338601873
-1002.3229135331638,-11.20035894010697,314.855735648769
-957.3626059867539,-19.6027185634238,280.2363702181683
-915.7102578352446,-27.83845655754004,261.26455007571394
-878.3488755079462,-40.01580560130117,230.46810072756756
-836.5609051001107,-28.90803689333259,211.43407789612152
-767.1987885771391,-10.134225245114285,208.48505860818938
-721.2575140338445,4.880983822202282,197.34873784625742
-675.4253491253385,4.421295753391831,186.26238317876138
-632.2740181407515,15.871169053652372,206.49355284424348
-617.0782071349545,23.42114789454095,198.846700963122
-589.150219493915,42.76169741960813,222.74680956289868
-589.096174534627,69.8085482810134,218.73218683240458
-595.2216098259855,101.15992719226242,257.7811994921813
-594.0499558972739,132.34896728240534,285.16567839170364
-624.3875329495802,163.60530864260477,292.45460988206986
-627.0143219142113,202.56152712700057,319.75649176834094
-641.2832108824116,230.00107070202364,346.92275139828587
-695.3414264810104,272.87096001182874,334.1946536278954
-701.7952103929476,315.72657329465216,361.425155379258
-743.0111200053027,347.24294228916096,388.174351078095
-780.9466025605076,355.41494801996606,403.27634819229814
-794.8606302865913,375.21885659221044,442.2478624198886
-828.9426052729525,402.67063676178924,453.41885353306174
-890.8975032248526,379.9003737259921,448.6425027914732
-921.5879020868493,380.1726379548572,452.10647876695924
-955.369060790382,353.6324840796807,483.0864770334416
-996.9663442663907,330.9876461380798,510.0120836371238
-1004.672339687865,311.7374434694825,513.88700524644
-1055.314505972988,273.368581523762,505.4080649355285
-1089.3628303243208,246.7601066623159,528.5362483620809
-1100.48793420791,192.89257799554386,552.098830895362
-1134.8115819367472,146.90745565509118,571.3622898747279
-1157.7449995666207,96.92902265299568,586.8864495011039
-1174.1930220819547,46.5835937858494,567.1865519825833
-1208.873570485334,8.232576873856006,574.6457760805168
-1224.2814824634306,8.35160834739692,574.4143005001708
-1236.2835422901808,-14.839828075846492,566.4635731875819
-1271.6982863669043,-22.48056165969011,546.3364145758236
-1272.8709600118289,-15.050909331932926,510.97163659353606
-1292.5208914359137,-30.445463027639413,502.8801884435562
-1312.6296951558384,-15.061208465684002,475.0541724238145
-1343.3027588422144,-10.920242896401934,478.5059118047448
-1350.7364900348234,8.517118485925367,482.2533688874387
-1365.767107014118,43.48885705108269,485.83461222741715
-1353.4183436749556,59.04554562465266,505.5905941376515
-1317.2388124384986,78.46338963866357,545.3136392142068
-1267.3542952996183,124.36458933478815,530.2075632351517
-1213.7682083076281,150.89250661540893,515.2218137692281
-1167.1671773745368,181.51866335598805,519.7411960251462
-1150.5458031029966,192.29196514609987,441.4616612196826
-1147.3234998699863,238.4473800941198,413.8813968072686
-1159.3153625346067,253.87466668026295,397.9513901281274
-1182.136611381053,296.6099534499549,397.46498549453696
-1190.3657212197847,300.40125832980686,381.63083213941565
-1232.8878873009644,281.3845706739815,381.05775162772204
-1261.1238292383232,277.41685488928437,345.32689552497544
-1265.4678203056092,265.7370253858351,333.5277592246078
-1257.9219203295725,242.46608168946585,333.7194658726477
-1224.0571448965754,222.68358715769403,314.670147298007
-1163.3840302243887,218.09894306414526,288.1218356931266
-1114.2643002452419,213.60403399733855,261.40017233204003
-1068.4586479582733,209.2753386732473,250.32707397531271
