acc_x[mg],acc_y[mg],acc_z[mg]
-309.54505361157993,609.9799625764151,727.3727521630731
-314.1072639484432,586.6600725018228,711.6854379426206
-325.61374169568614,594.4874141526413,711.4865932810899
-306.8917520254114,613.5112398219576,692.079354315694
-305.82818801527543,609.9157204549974,723.5049685672478
-297.4124701095685,594.5863266253002,747.2296859783924
-285.49708616092147,586.8629960282054,759.208292332244
-278.5263061290043,598.204279748946,735.7272870960013
-262.62179235518755,590.4840083004901,751.6899246939578
-269.810791656682,586.8120102175566,767.292602468733
-259.1231460284603,598.0890518168794,739.942793920452
-258.8233494618448,602.0261761151872,747.7833918820393
-267.0748930572622,582.6393314740508,735.9506049466434
-265.9022194123376,594.5200450714567,767.3252333875483
-274.2638923587566,598.2766796000674,747.5641528962491
-280.41685998786545,606.4497050470854,790.6155516919642
-277.7350063477335,575.2310931867662,763.2881769003686
-281.6711109298283,602.2729474387279,755.2895229257698
-293.0674593260696,586.9557902035864,763.0189718201426
-278.7180127770442,609.7413489825782,727.8357033237651
-266.63845451810766,586.6111261235999,747.7181300444087
-289.15990679793816,613.9731712664367,759.0624729137882
-293.06847904228255,606.2661561287495,759.0298419949728
-289.9787389169594,613.768208307628,735.5029495291461
-309.817317840445,590.6022953811955,723.5100671483127
-305.5559237864103,609.984041441267,731.3578031233909
-314.4621251905595,594.2946877883885,699.8801833449752
-321.70516945134176,582.8850830813785,715.5083540250749
-336.6011838905233,598.5815747477477,727.006674042614
-344.5539506355382,621.7515665390322,715.0352057022532
-341.0277719710605,594.6057012333468,711.255117700744
-336.76433848459976,594.6791208006813,723.0919835009918
-337.28235432079254,559.7915700060673,715.3533571607023
-352.0417267874351,575.5227320236779,730.7775845982064
-333.04747288829526,575.3055324703136,723.2133297303361
-345.4258079976343,555.879938613084,703.4706041308705
-344.7711501889025,571.4917938337761,719.1263071487206
-332.9118506319691,594.6495490305049,723.1501073251316
-333.04747288829526,575.3055324703136,723.2133297303361
-368.21952450632995,563.8643165607012,710.9512422692766
-356.9047534071268,606.1947759938411,695.2792237920188
-352.6688522584165,583.089026323974,711.1194954444179
-376.2803811699204,571.5590951038326,699.0307597395646
-356.5223598272601,583.1185980941505,711.0613716202782
-353.07877817603367,582.9870547026763,699.3397337520969
-364.5842362070636,571.5040304283318,703.1310386319489
-379.9166891853997,583.2287274451521,702.8618335517226
-368.60089836998367,586.9404944603917,695.1690944410171
-356.4132501924715,579.2844651333535,715.0005353510119
-380.597859615669,583.0584348375849,683.2292373032586
-387.7317942416626,567.8136774535648,702.796571714092
-387.5411073098357,556.2755885037194,710.6871357701152
-395.87422820229136,544.5926998516313,694.9039682256429
-392.1298302682364,548.397261042252,691.0219086028359
-387.7583068632,544.6355279325765,706.7989578500304
-402.98165020674753,552.5260919885997,710.468916500538
-392.7579754554308,555.9635553425483,671.3638194490474
-407.29912865249605,564.0254317223518,694.667394064232
-396.0384025125808,559.9985723973019,687.0001478588509
-380.29704333284053,548.3768667179925,699.0491146313982
-400.4099259176172,544.4509592980274,675.2132481530391
-395.32969974456114,564.0386880331204,706.6205075127592
-387.8684362142016,567.7800268185365,698.8696445779141
-383.9608836860702,594.7963881651737,694.9131456715597
-379.998266482438,571.6233372252503,702.8995630516029
-383.76917703803036,583.2593189315414,702.8037097275829
-380.6794369127072,571.4520249014699,683.2669668031388
-380.18895341426486,563.8510602499325,698.9981288207492
-388.5771389822213,563.739911182718,679.2503046402187
-384.0699933208588,579.3221946332336,694.9631117659957
-352.80549423095556,583.0553756889458,707.19256830824
-360.18518046427687,590.9204468396446,714.904682026992
-360.0485384917378,571.6447512657228,722.8217587045526
-344.7171052296147,579.2294004578526,719.1008142433961
-364.44759423452456,571.5376810633601,707.0569460519139
-355.8401696807779,563.9805642089807,734.6841174101248
-371.5815288605182,575.6032896045031,722.6351506375777
-367.34664742802084,571.8068861435863,734.4852727485942
-380.10737611722664,575.4574701860472,698.9603993208691
-383.2511612018376,560.2178113830921,722.5127846920203
-386.8589171633535,556.4469008274998,730.3207517347923
-386.17774673308423,556.6182131512801,749.9533479832563
-387.24029102700723,540.9033665930772,722.5178832730851
-372.23618666924995,559.9914343838111,706.9794476197275
-387.0230914736429,571.8537930893833,722.4169313680003
-380.0798437794762,560.0169272891354,702.937292551483
-379.01627976934026,575.7307541311254,730.3727572616542
-384.91431834520455,555.9380624372237,675.4069942335049
-394.75661923286754,568.0441333176977,722.3139400304896
-390.7124247321971,556.4764725976761,730.2626279106526
-363.410542845926,544.7650318916246,742.484946439406
-376.0611421841302,525.2711170481256,714.8883665675843
-371.55399652276776,540.8534004986413,730.6021934095743
-376.47106810174733,525.1681257106148,703.1086048752633
-383.57747038999054,513.793191354846,722.663702691541
-387.4034456210837,517.6915664370606,722.5933422728456
-372.28921191232484,513.6351353418345,714.9842198916042
-415.2233433435476,513.8258222736613,698.64224786242
-422.57447752290545,486.94100431849824,714.3214043531685
-405.4432451448762,498.83803337531174,761.6331774867056
-401.64480225153346,510.38122090622187,757.7266446747872
-402.10877312843843,521.8499691535847,741.982226346408
-421.67610753927187,518.0617234223716,733.8530486965478
-418.36814814437145,517.8955096796562,718.2044836921885
-410.2787394268176,514.069534448563,730.1127296273448
-413.586698821718,494.9264019823284,749.7504244568738
-406.2345449261471,502.5018737285414,738.0614175075078
-413.91402772608393,506.4298205809324,737.9329332646726
-397.6821850479012,506.51649645903547,761.7239322296606
-405.0343389434721,518.2503709217725,769.422789637644
-413.1777926203138,514.3387395287892,757.5400366078121
-395.11046075877084,498.4413637684633,726.4682638821618
-402.5982369106678,490.832241387222,734.2303436953497
-419.02178623689036,502.2836544589641,702.5487806743383
-421.2121366623669,506.5919554587959,749.597467024927
-425.6652373644415,498.7482983485696,733.8581472776127
-406.8341380593781,475.31827892297576,726.3703711257158
-401.9721311558994,502.57529329587584,749.8982833077555
-409.26922037596944,502.7374281737394,761.5628170680101
-414.10471465791073,498.6585633218276,734.0314990338189
-403.25289471939965,494.52973237547997,714.5855108523299
-406.2620772638975,517.9424166254532,734.0845242768938
-409.27024009218235,522.0467743826894,757.5726675266274
-397.2732788464971,506.61948779654625,773.5036939219816
-404.65194536360536,495.17521273829504,785.2049374659034
-389.4571540740212,502.72519157918356,777.5580855847818
-375.1882651058211,494.59499421311057,746.4026961296672
-371.171602942901,517.7772225989507,746.3843412378336
-390.9846889610622,517.7894591935064,730.3890727210619
-379.0693050124151,529.3744550891488,738.377529533531
-385.44049191110116,545.2167661739738,773.5506008677786
-366.90918917265327,537.1599883752352,754.2320772129117
-371.58050914430515,517.675250977653,734.6045795455126
-402.51767932984257,521.7479975322868,730.2024646540868
-386.3398816109477,514.0960470701004,754.0189565243994
-386.53056854277463,506.32478981099564,750.1175222935458
-377.84156669198967,491.063716967568,781.6960939770463
-379.0693050124151,490.75576267124865,746.3568089000831
-390.3840761116182,506.354361581172,750.0593984694061
-387.2668036485447,517.7252170720889,726.5202694090235
-367.59035960292255,498.36998363355485,742.578760331
-378.63286647326055,494.72755732079764,758.1243339978485
-346.8513712633775,514.0379232459607,782.0825664217649
-355.1304471965452,529.4019874268992,762.2837564305855
-351.9040650986831,498.318997822906,750.663070467489
-367.26303069855663,486.8665650349509,754.3962515232013
-351.4135816002407,510.0283990965315,762.4051026599298
-355.48530843866155,517.7272565045148,754.4686513743226
-336.10866095965497,513.7432252604101,758.697414509542
-354.7205212789281,490.8852666302968,782.0427974894588
-358.6566258610229,498.61777467330853,778.0332733400296
-339.7164169211709,509.9733344210307,766.5043618361011
-354.93976026471836,517.8638984770539,770.1743204866087
-370.27119352684156,510.27924928492405,773.8952649477651
-370.10803893276506,514.1827229482036,777.8089357731744
-343.7065664625535,529.2775820489159,758.5301810506137
-351.9040650986831,517.628344031856,746.6729209261064
-351.54920385656675,490.68438253634014,762.4683250651345
-355.21202449358344,498.48623128183436,766.3116354718483
-331.9002921486951,506.07903820366795,770.5597732151143
-339.44415269230575,529.3510016162503,770.3680665670745
-359.1746416972157,502.34993601280775,762.3143479169747
-339.0892914501895,483.0976939117844,790.1526005312722
-335.2898288406337,475.3305155175316,790.2362172607365
-335.4264708131727,475.2958451662903,786.3092901245584
-346.71370957462545,475.45390117930185,793.9887729244952
-341.5784187260686,464.1595244043583,833.3498187454434
-334.08962285795866,471.7686467855996,825.5877389322552
-339.30649100355373,471.45661362442837,786.2644226111873
-355.02133756175664,486.9481423319891,774.2021995278715
-339.1984010849781,506.2411730815315,782.2232872591559
-335.2898288406337,475.3305155175316,790.2362172607365
-347.6141189906849,482.95187449332855,766.4778492145637
-332.0369341212341,486.7350216434767,770.6229956203189
-351.4400942217781,486.8502495755432,766.4074887958682
-319.65757929568207,486.8512692917561,794.3558707611672
-338.5702558977837,479.3655325722852,805.871525954327
-335.8629093523273,490.6333967256913,770.5526352016235
-331.5729632443291,494.575619605064,782.3772644073156
-335.53558044796137,479.1299781270873,782.3701263938248
-343.78712404337875,479.053499411114,766.5482096332591
-343.2425955856486,479.190141383653,782.2538787455452
-327.5828137029465,494.5796984699159,786.3612956514203
-331.3547439747519,486.90633396725696,790.2555918687831
-354.7755859544289,483.14766000622035,782.0682903947832
-358.6290935232725,483.17723177639664,782.0101665706435
-347.3683673833572,479.15139216755983,774.3439400814755
-351.0852329796618,479.2156342889774,778.2117236773007
-332.09097908052195,478.99843473561316,770.6484885256434
-351.16681027670006,467.60922435286267,778.2504728933939
-339.2524460442659,459.8848740395548,790.2280595310326
-335.4529834347102,471.427041854252,786.3215267191141
-351.00365568262356,471.51167829992914,782.1641437188032
-343.9788306914186,471.28122243579617,762.6467754024055
-355.2660694528713,471.4392784488077,770.3262582023424
-350.64879444050723,483.18640922231344,789.979248775066
-346.9043965064523,486.9909704129342,786.0982088684719
-339.3890880168049,479.1605696134766,782.3120025696849
-343.40575017972503,475.2866677203735,778.3402079201359
-350.70385911600806,475.44880259823697,790.0047416803905
-354.8020985759664,479.2788566941821,782.080526989339
-339.7704618804587,482.9263815880042,770.5200042828081
-323.5936838777768,494.5847970509808,790.3463466117381
-346.9319288442027,483.12216710089587,786.1104454630278
-339.06175911243906,486.9654775076097,790.1403639367165
-363.60021006153994,479.06471628945667,750.5529411164873
-331.65454054136734,482.96920966894913,782.4149939071957
-320.77620798131886,482.7091820346398,762.9557494149378
-335.045096949519,510.14872560966285,790.1220090448829
-339.33402334130415,486.89715652134015,782.2865096643606
-324.65622817169987,478.86995049277795,762.9108819015669
-320.4213467392025,475.0745667480741,774.7610040125834
-343.2425955856486,498.49948759260303,778.2647489203756
-338.7894948835739,525.6535106279922,790.0139191263073
-343.1069733293225,517.8424844365813,778.2015265151709
-339.7990139344221,517.676270693866,762.5529615108117
-342.12498661622476,521.9509210586695,805.6747207252223
-351.2228946684138,517.7996563556363,766.3065368907834
-346.3598680487221,525.7473245195863,793.8245986142058
-351.54920385656675,509.9937287452903,758.4781755237518
-315.5318074979734,506.1993647167994,798.2766796000674
-335.20825154359545,506.2452519463834,786.2083382194736
-328.12938159310266,513.752402706327,766.6654769977516
-339.41662035455533,513.9104587193385,774.3449597976884
-350.94961072333575,517.8679773419058,774.1593714469265
-327.6929430539481,517.724197355876,778.4330020955169
-326.820065975639,506.357420729811,805.9561624000042
-320.53147609020414,517.5273921267712,762.8425609152973
-319.6045540526072,533.2075683337328,786.3510984892905
-319.2772251482413,521.7041497351288,798.1685896814917
-319.3037377697787,498.5260002141404,802.1709758174301
-331.81871485165686,498.37610193083276,774.5111735404039
-323.40299694594995,521.6654005190355,790.257631301209
-331.65556025758036,521.5879020868493,774.4357145406434
-312.6878189799779,517.5018992214467,766.8847159835419
-323.34895198666214,529.4030071431122,790.2321383958845
-324.0301224169314,509.9223486103818,774.5896916888031
-319.5770217148568,517.767025436821,790.3279917199044
-316.104888009667,502.19391943222206,782.5832470823372
-324.46656095608597,505.95157367704576,762.8221665910378
-304.7901169104639,525.2140129401988,770.901378146462
-307.7442347794609,517.7456113963484,798.3541780322537
-328.56480041604425,509.7816277729908,754.8989716161993
-319.68613134964545,521.6011583976181,786.3888279891706
-331.90131186490805,525.388384412618,766.5696236737317
-331.5189182850413,521.6225724380906,778.3626416768215
-335.48153548867356,525.4862771690639,774.365354121948
-327.96520728281325,517.6558763696064,770.579147823161
-328.26500384942875,513.7187520712987,762.7395695777866
-320.3407891583773,525.2986493858759,766.7429754299379
-328.10184925535225,517.6212060183651,766.6532404031959
-324.1127194301826,536.9346310921671,766.647122105918
-343.86972105663,506.0657818928993,758.6066597665871
-323.5936838777768,513.8941432599308,786.3561970703554
-323.5121065807386,525.4995334798326,786.3184675704753
-320.3948341176651,517.5620624780124,766.7684683352624
-316.65043618361017,521.3666236686331,762.8874284286684
-313.1517898568829,509.6623209760724,755.1304471965453
-309.1341079777498,513.5352031529626,759.1012221298813
-324.0841673762192,502.1847419863053,774.6141648779146
-320.0399728755488,509.92642747523377,778.5737229329079
-319.9043506192227,509.96109782647494,782.5006500690859
-331.38227631250226,521.6562230731189,782.2885490967865
-311.21534876843776,514.0093711919973,810.0890722112038
-320.0399728755488,509.92642747523377,778.5737229329079
-319.7677086466837,509.99576817771623,786.4265574890509
-308.78026645184644,525.2099340753468,766.9163271861441
-308.64362447930745,525.2435847103751,770.8432543223222
-308.72520177634567,513.6381944904733,770.8809838222023
-316.54132654882153,517.531470991623,766.8265921594021
-319.5494893771064,521.6358287488592,790.3157551253487
-312.7153513177283,532.9424421183585,762.906803036715
-312.8244609525169,536.7775947953685,758.9676393059812
-328.2384912278913,517.5865356671238,762.7263132670179
-323.1572453386223,517.8649181932669,798.1227024519077
-320.4488790769529,509.82445585393594,766.7939612405869
-339.55326232709444,513.8757883680972,770.4190523777233
-331.5729632443291,513.884965814014,778.387114865933
-315.6959818082628,521.606256978683,790.3728592332754
-305.1714907741176,509.6714984219892,763.0985096847548
-327.88362998577503,509.95192038055814,774.5315678646633
-336.1902382566932,502.13783504050826,758.7351440094222
-324.46656095608597,505.95157367704576,762.8221665910378
-323.78437080960373,506.121866284613,782.4547628395019
-335.5906451234622,510.0120836371238,774.4153202163839
-316.75954581839875,525.2007566294301,758.9482646979346
-323.94854511989314,521.5287585464965,774.55094247271
-335.6722224205004,498.40567370100905,774.454069432477
-311.76089694238095,513.8727292194583,794.3823833827047
-327.9111623235254,506.08311706851987,774.543804459219
-316.8961877909378,525.1671059944018,755.0213375617567
-327.96520728281325,517.6558763696064,770.579147823161
-312.1157581844973,521.507344506024,782.5781485012723
-324.1667643894705,529.1980441843035,766.6726150112424
-316.6779685213605,536.8071665655449,758.9105351980545
-319.9318829569731,525.4016407233868,778.522737122259
-320.91284995385786,521.2932041012987,751.0495429122077
-312.25138044082337,521.4736938709957,778.6512213650942
-320.6956504004936,532.9342843886548,754.9387405485054
-312.1973354815355,529.2113004950724,778.6257284597698
-313.07021255984466,521.2687309121873,755.0916979804521
-327.9111623235254,525.3924632774699,770.5546746340494
-319.95839557851053,521.5328374113485,778.5359934330277
-304.43627538456053,536.8887438625832,778.7164832027247
-324.0851870924322,521.4940881952554,770.6250350527449
-320.5590084279545,532.967935023683,758.8646479684704
-315.99577837487834,517.6691326803751,782.5322612716882
-304.1905237772328,533.0882615368143,786.5825740696365
-308.78026645184644,525.2099340753468,766.9163271861441
-309.21670499100105,521.2381394257978,755.1498218045919
-304.9542912207533,521.3115589931323,766.9877073210527
-297.0290568134888,513.5831298149725,774.9812627145866
-304.2445687365207,525.3506549127378,786.607047258748
-300.8825643823324,532.922047794099,770.9340090652772
-308.480469885231,529.1470583736547,774.7569251477314
-323.6212162155272,510.0253399478926,786.3684336649112
-320.5579887117416,513.658588814733,762.854797509853
-316.5137942110711,502.0909280947113,770.803485390016
-304.9542912207533,521.3115589931323,766.9877073210527
-308.0715636838268,529.2500497111655,786.5366868400525
-304.81764924821425,521.3452096281605,770.9136147410177
-315.86015611855225,517.7027833154034,786.4591884078662
-308.39787287197976,521.4441221008194,778.7093451892339
-308.15314098086503,517.6436397750506,786.5744163399327
-308.15314098086503,517.6436397750506,786.5744163399327
-309.35232724732714,521.2044887907696,751.2228946684138
-320.31325682062686,529.1674526979142,766.7307388353821
-305.06340085554194,525.1456919539293,763.0485435903189
-311.8159616178818,525.4444688043318,790.4187464628595
-312.44308708886325,533.011782820841,770.760657309071
-316.9237201286882,521.2983026823636,755.0345938725253
-324.73882518495105,505.88223297456324,754.9693320348948
-313.01514788434383,529.0053178200508,755.0672247913407
-304.4087430468101,540.7575471746213,778.704246608169
-300.6643451127552,544.562108365242,774.8221869853621
-300.5001708024657,529.1562358195715,782.7260073521539
-296.8648825031994,517.485583762039,778.8949335399959
-308.2887632371911,517.6089694238094,782.6485089199676
-308.31629557494153,513.7401661117711,782.6607455145233
-305.0358685177915,509.7051490570175,767.0254368209329
-305.30813274665667,509.63682807074804,759.1726022647898
-320.5039437524537,521.3961954388094,762.8293046045287
-308.88937608663514,529.0440670361439,762.9771634554104
-316.07837538812953,544.6814151621604,774.5907114050161
-316.378171954745,540.7442908638526,766.7501134434289
-304.8992265452525,529.0491656172088,766.9622144157282
-305.0083361800411,513.5739523690557,767.0121805101641
-300.60928043725437,513.6810225714185,782.7769931628029
-289.34957401355206,528.9645291715316,771.1195974160393
-297.2462563668531,501.9420495276165,771.0930847945018
-292.5208914359134,529.1643935492752,790.6950895565765
-284.59667674486195,540.7453105800656,794.6995151249408
-284.7598313389384,536.8428566329991,790.7848245833186
-285.25031483738076,525.1334553593736,779.0438121070906
-289.07629006847395,529.0328501578011,778.9734516883952
-296.91994717870017,529.0573233469125,774.9302769039377
-292.84822034027934,540.6688318640923,778.8775983643753
-284.9229859330149,532.9393829697196,786.8711537579093
-292.4117818011248,544.6396067974284,790.6441037459276
-289.04977744693656,532.9016534698394,778.9601953776265
-285.93250498386305,544.2725089607562,755.421066317244
-284.86894097372704,540.6769895937961,786.8456608525847
-270.0279912100463,555.8626034374635,767.3935543738178
-289.26799671651384,540.5699193914334,771.081867916159
-296.4294636802578,560.0760708294882,782.6831792712089
-293.50287814901117,525.0569766434002,763.2218953465252
-300.6643451127552,544.562108365242,774.8221869853621
-289.21395175722597,567.6168722244599,767.0672451856649
-300.93762905783325,544.4937873789726,766.969352429219
-305.25510750358177,555.9931271127246,751.1678299929131
-297.73877929772146,548.1617065970541,747.381623694126
-289.5137483238415,544.3704017172022,763.2157770492473
-296.91994717870017,548.3666695558627,770.941147078768
-294.2126006332438,559.6355534254818,735.6222563260645
-289.15990679793816,575.3544788485365,767.0417522803405
-292.63102078691503,571.6182386441855,778.7756267430775
-297.0565891512393,567.6423651297845,763.0250901174204
-301.3465352592374,563.7011619666247,751.1994411955153
-301.51070956952685,559.7976883033452,747.2857703701061
-306.400248810756,567.2915827525201,715.7908154160698
-292.8767723942427,594.7280671789042,766.9204060509961
-312.06273294142244,587.1729897569508,770.5832266880128
-320.0409925917617,567.8554858182969,766.604294024973
-328.1569139308531,567.8116380211387,754.7093044005853
-328.7299944425467,583.1155389455116,735.0257223414725
-321.2411985744368,571.4163348340157,731.2527723534541
-332.52945705210243,571.5733711308144,738.9322551533909
-319.9869476324739,575.5920727261604,766.5788011196485
-328.32108824114255,563.9091840740722,750.7946138589631
-331.8747992433706,567.8758801425564,758.5781077126237
-328.4301978759312,567.7433170348693,746.8554501282294
-320.3142765368398,567.7871648320273,758.7514594688299
-332.0919987967349,556.2358195714133,754.6889100763259
-339.39010773301794,556.3979544492769,766.3534438365804
-336.3554322831956,575.471746213029,738.8618947346954
-328.5117751729694,575.4472730239175,742.90404980294
-359.1756614134287,560.2779746396578,750.3449190090398
-351.35953664095285,556.3846981385082,754.400330388053
-351.65933320756835,552.4475738402003,746.5597324264658
-359.993473816237,540.7636654718992,730.7755451657804
-382.32321944802766,537.2792951721536,754.0006016325657
-394.34669331525043,529.5284322373084,742.072981089363
-378.90615041833865,533.2779287524282,742.2912003589403
-367.6454242784234,529.2510694273784,734.6249738697721
-378.96019537762646,525.5403221283517,742.3166932642646
-386.8313848256031,521.697011721638,738.2867747905759
-390.9296242855614,506.21771960863293,734.35372935712
-391.03873392035,510.05185256942997,730.4145656263862
-403.1713174223614,486.8267961026447,718.5369111776193
-401.8630215211107,518.0494868278158,749.8483172133197
-400.71686049772353,506.7510311880204,785.2253317901628
-410.03298781948985,471.6503597048942,745.9580998608088
-421.56597818827026,475.6088980436745,745.7714917938338
-433.4262974614166,471.7604890558958,737.7575420760404
-429.27197360974446,456.35869537507716,749.645393686937
-425.90996925555623,463.92906854022533,733.9723554934662
-449.68465276113665,429.18631744785426,721.9590787883733
-445.6129259227158,440.797825965034,725.9053805325979
-460.9718915225894,429.3443734608659,729.63856158831
-465.4249922246639,402.19035042547665,717.8904110985914
-484.3927335022664,406.2763532908792,725.441409655693
-455.3726297971275,406.5812484385596,784.7440257376373
-417.1098183375567,348.28713169125035,789.4387991821876
-413.22877843096273,352.1263632331123,789.4836666955587
-443.293071538191,364.14167937063115,808.6166019996637
-447.5830176461891,379.50880270020855,792.8018232525889
-449.08302019547966,359.82318120866967,753.5998531608655
-448.510959399999,383.13797270219703,765.3031361372132
-440.5857249927345,375.4095435240373,773.2966915307471
-419.8181845992261,375.6369402395314,816.7784105683389
-408.1760845956571,348.534922731004,824.8933121912172
-411.456511652807,352.5709595019706,840.5286208848079
-399.6512570551616,367.99008835840993,844.5789336827561
-395.797749486318,387.26986279718363,840.6469079655134
-399.4330377855843,398.94051485471596,844.4769620614584
-395.661107513779,367.99518693947476,848.5629649268609
-407.902800650579,329.2938975083235,836.7362962887429
-417.21892797234534,332.81191844309734,789.4897849928366
-421.18154517597753,355.98598909923373,781.5023478965804
-414.12816813080923,340.3149903381889,765.9628925270098
-436.130584858234,325.32618172362635,801.0054401859963
-433.1234417461621,340.53218989155323,773.5261276786671
-442.6659460672096,356.574365354122,828.2736714372392
-437.0320139905065,352.13350124660315,769.5043669346821
-457.36107641243444,297.9488408375949,749.7596019027906
-481.2183569312661,290.21939194322226,729.8047753310254
-434.513314944451,317.01141572300435,738.2633213176774
-425.8528651476295,336.5012517016515,761.8748502291813
-417.9011181188276,351.95097204448007,765.8670392029899
-432.4963162751807,352.275241800207,789.1950870072859
-470.0779573044822,410.7396511550836,804.1329098111996
-444.2760779675017,398.65193516644325,773.163108706847
-446.7652052433808,360.4044194500671,820.3504764624007
-462.61465434169673,356.55295131364943,808.3524955005023
-444.4657451831156,352.26096577322534,777.2419735587587
-415.27432915419644,332.3030800528213,734.5750077753362
-410.98336332998525,316.935956723244,750.3897865224109
-409.6760871449476,367.46901337357815,777.7110430167285
-393.63493139859185,398.40210469426364,789.6213283843108
-381.85720913869676,409.9534499548776,793.6838777768148
-385.4914777217501,383.00438987829693,805.4932112393122
-369.66854124497155,382.98807441888925,817.5044485119793
-324.43698918590957,393.9632800191707,786.747768096139
-322.35574839522167,374.1797657711859,739.7510872724122
-360.1535692616745,382.3854221370193,758.7800115227933
-367.83407177782425,405.6227151983603,754.6613777385754
-367.5087823058843,490.66704736071955,746.5301606562895
-358.1590043490897,563.3993259675833,667.9324743923767
-354.1148098484192,571.1410114565117,671.89203244737
-363.7113591287545,598.755946220167,722.6749195698837
-335.40097790784824,575.7113795230788,766.3473255393025
-293.09397194760703,544.468294473648,771.0115074974635
-263.05721117812914,528.5851947403038,751.8918285041274
-228.3766627747498,566.9357017941907,744.4326044061938
-200.58531710624936,624.860681272402,756.4275262194533
-204.8762829304605,659.5381705271424,736.6225979309959
-212.50172077110943,671.2037240036099,736.4696404990492
-214.95515797953433,670.5878154109712,665.792090061336
-232.00481306052527,612.3681379472093,630.4109966196409
-231.59488714290816,612.4711292847202,642.1907583119619
-224.3803949360893,677.940989022755,614.6053953184829
-208.69613986427578,755.1273880479064,606.7311467218674
-251.1397877970561,824.954495163996,590.160758260976
-271.38931235437184,840.3053030341656,558.4088348212694
-260.37331810557123,820.7695798259344,546.8656472903591
-272.66905620165915,774.3317034869198,535.0644715575655
-248.0214956177696,759.0889855353256,582.5812076499111
-225.66421764822854,766.4421591471095,559.3428948723571
-233.6445167309938,805.0526938353057,543.3945333013822
-224.1397419098265,905.852661204387,574.593770553655
-254.45182605680841,1018.2151907124248,565.9119067163608
-238.8216159442827,1087.6701014107775,558.0621313088568
-204.46635701284333,1021.6638709447162,562.7242738345919
-155.2691286015102,912.9182748441109,559.9037387894949
-152.66783254220354,812.1652144208268,544.5835224057146
-157.8021036745474,784.8398790616573,513.2017559513189
-174.0074337311926,788.6220064955924,489.39852039177504
-203.69137269098013,874.108895494384,504.3648952496521
-179.2630510928809,943.7728480163971,528.0427057149996
-171.310284347866,959.2225683592258,532.0348946888082
-169.53903728592334,978.9765108370341,579.0896993366747
-198.23079237048333,986.4775432996997,527.6144249055488
-251.51606307964497,939.7215155022358,444.5575196422836
-209.72605323938348,854.282553165454,445.4711853691118
-297.53687548755187,816.5530532852708,475.68027817858297
-297.1534621914721,774.1685488928432,495.452575548225
-200.9524149429214,696.1521008703279,508.9301647351543
-211.4493736393162,711.9556627390599,536.1922776891192
-257.1194036699587,774.2470670412425,539.2228742740896
-238.9439818898401,812.4435969469697,500.1198166550249
-242.60782224306976,878.1724646031009,491.9936981538039
-229.79304859457613,901.5698531098795,523.5039488510348
-208.94291118781646,855.4746014184254,578.9163475804684
-232.19855914099108,759.071650359705,594.5914252063651
-293.68948621598616,705.523292867595,609.5496423345384
-299.53347983256265,712.77755400672,550.5682368596821
-308.13988467009636,701.0253246521494,526.9312150428536
-315.2197743368021,732.1368663101059,538.4947968980233
-317.90264769314706,782.6658440955882,561.8310024320233
-314.40502108263274,848.1989262388279,538.1154624667956
-347.9414478950508,895.0966945898958,561.0019731508721
-383.65904768702876,902.8281829166943,529.0440670361439
-375.84190319833993,841.0058480724816,545.0678876068791
-388.32832822625465,786.7967144743619,529.3652776432319
-362.581513564775,786.2797183543821,494.4318396190341
-378.54007229787953,786.2623831787615,478.4936752101891
-386.95680991979935,840.2104694263587,446.7886587162793
-361.26505993382045,851.2662326074654,407.89056405602327
-363.29225576522055,898.0966996884769,450.8726221492559
-317.84962245007216,867.640835555465,545.8469507935941
-268.5718364579138,809.1203418088746,535.0083871658518
-302.8057491600088,731.2660286642229,452.3420332121571
-379.49656610565285,863.2601347045119,435.0486659562645
-371.20831272656824,843.0412016335855,344.97509343149807
-365.96391224322275,866.531384315745,380.2960236166275
-290.67622480663636,870.3481821009213,440.2798101288412
-158.90747604941546,964.0794766816397,222.1594530242234
-370.09376290578336,1040.2736918315634,336.47677851254
-151.26164388450698,883.9012302876112,348.13213482687775
-235.8114136835719,490.6976388471089,434.5337092687106
-354.264708131727,349.97884088858075,601.992525480159
-309.94682179949325,624.3304288416534,601.7304584134237
-218.56495337347621,724.7459631984419,661.6306281961731
-195.11657905604872,732.3734404715168,669.8046733594041
-207.4663621114244,658.8886112994754,662.0191400733177
-100.6329378533954,642.3406565952697,636.2029847093555
-87.99263764894232,763.2382108059328,753.7222191064228
-50.666027644506535,752.047845084713,832.8114085849909
-115.15961108023637,871.5310529079758,725.4781194393602
-100.40513325141615,1087.5171439788307,662.1761763701163
-104.41384162787497,1078.7883731957397,548.3319992046214
-224.5149974762024,962.6916429157767,440.9599608428975
-283.5433098968557,943.5199583955787,408.7430468100728
-327.35541698745243,824.767887097021,502.6782846333866
-449.84270877414826,555.5933983572372,580.2440180897656
-354.8418675082725,558.376203902454,542.4115268720716
-151.6991021398745,517.9067265579989,522.0437152340504
-235.08435602371864,522.7717926101167,560.0240653026264
-189.80691673507266,604.2695517837386,627.1458653056854
-152.29155725961468,697.398194082587,690.18778074062
-139.5889523945486,840.4857928038628,693.8200098912473
-184.92349579112135,905.7262163939777,594.8055656110905
-187.34940066179584,831.741726277577,540.0733175957132
-132.1837732559029,798.7426899093982,360.47885873361446
-196.1393544176656,845.9810434756008,394.68319966553315
-263.46611737953333,948.4329511097063,542.4645521151464
-316.08755283404633,988.7984174004375,682.8264493991323
-321.9111521263633,888.9202734878885,757.6440476615359
-318.7255586770202,632.8409803551673,680.0630184619621
-370.4720776207982,469.6170455762162,554.2504321047453
-361.4210765144061,499.79350746687203,475.79244696201056
-362.1155032554441,678.2632193460561,530.1239465056875
-309.21568527478803,883.260848505861,569.4717360158668
-245.08165377575426,1003.1264499089905,617.1230746483254
-223.6227457898467,940.7402119990007,582.3334166101575
-243.75092411781804,773.6148429891962,480.5555413928305
-319.80135928171194,719.4026502424376,408.95616749858516
-363.12502230629224,728.2150377549929,490.69457969847
-372.4768396955128,732.7201439839293,553.3326875130651
-357.03527708238806,717.1602942900992,557.542076040238
-380.0472128606609,713.5046116665733,561.1335165423463
-421.26312247301576,725.711634452132,591.871842066353
-402.9225066663948,709.8825796780757,568.6529038968456
-376.13762090010357,643.9742419684602,577.1257259104792
-387.7787011874596,613.1482208501375,580.9792334793228
-399.587014933744,694.2758230384485,556.9812321231002
-379.2844651333534,744.5916801354184,576.7392534657605
-367.42414586020715,787.0577618248842,576.7729041007888
-372.72463073526643,833.0673573544484,525.5189080878791
-391.88203922848277,790.763410542846,537.1477517806795
-438.3688619457206,794.9207935431571,528.5882538889427
-432.6798651935167,817.5258625524517,465.80330693967875
-431.64281380491815,771.4438671717661,505.22043715234054
-434.13194108079733,733.1963514553901,552.4078049078943
-397.37932933264676,756.620252583706,607.8242825021797
-378.1658364477167,729.4244211835846,612.1285046371596
-400.57817909275855,772.2616795745745,623.42186169589
-395.08190870480746,864.3328761605646,540.776921782668
-413.99356559069616,818.2284470231936,560.27185634238
-418.0377600913666,771.867049400152,564.292597370152
-438.74921609316135,760.0679130997844,524.7755349686182
-434.2410507155859,717.721138207237,552.4587907185431
-389.49794272254036,678.3692698322058,517.9403771930272
-394.4435663554833,736.0535962841542,474.50046652016755
-396.908220442251,798.2226346407796,501.72586969046523
-449.6836330449236,810.5183727368675,532.2908434582656
-508.7935227626152,741.1226055788675,508.0919580080864
-486.92570857530353,698.1487052153386,481.0919121208568
-470.7213982348713,694.3665777814035,504.89514768040056
-479.8723315301352,624.5496678274437,477.52188565922114
-503.53688568471404,566.6634375653257,473.43792222624444
-505.756807880367,663.6506860140823,500.5501368969016
-487.26119520937334,695.1996859274066,583.1369529859841
-489.6687451882142,649.2492339381951,634.2767407830402
-468.37503122880906,640.888580707989,583.6029632953149
-476.3838823655378,714.2479847858342,559.6885786685566
-534.8115819367471,683.6422223695147,547.1419903840762
-542.3177129804776,590.0700035180209,461.00452244140456
-520.4325636175453,613.7498534157945,531.8951935676301
-466.3029678840379,664.5796474841052,638.4993856209818
-467.0738733410492,619.0401411287239,736.7572004711091
-483.8777768147125,576.3293275481434,705.2520483549429
-436.58945715407407,486.41483075260163,643.4705021592491
-470.22581615536404,474.3628048314155,564.5148955045811
-518.3299087863847,486.83393411613554,618.6964967649503
-503.2177145100519,560.0159075729225,595.1277959343915
-387.2413107432202,579.5220590109773,714.5386039065329
-336.74088501170127,753.0226937843199,691.1616097240139
-332.3051194852473,713.5239862746198,605.0200629164905
-381.0536727628701,589.6712944787466,557.6124364589335
-439.5364370095803,570.6372716473006,541.1011915383949
-547.5243839639429,603.3395705975028,641.4137345576727
-634.3807518367639,585.1590502363193,695.1191283465812
-644.0221686304702,484.3233927997839,659.9929639581305
-658.1279030045939,554.2851024559865,683.0936150469325
-652.0034874294485,561.5526199058802,636.0653230206034
-641.3433741389772,588.2702044021149,604.7376015254956
-572.3350991419088,556.7507762589672,601.9527565478528
-495.80131849306343,512.5440389939481,485.5103424716902
-502.43661189091085,484.8424283521896,410.9364563841883
-540.91458347142,415.6404072746555,426.292362835423
-595.98333783708,489.1517490682344,378.1240280829846
-627.030637373619,554.9876869267283,357.81332055289016
-574.6641309723504,600.5169961199798,303.4991561848338
-615.2264024921865,666.9545665441308,341.9139053601383
-658.032049680574,652.7254465082368,443.3613925244604
-647.1057904585155,587.8215292684047,549.7086160921416
-653.6646051403895,480.0354861242117,604.9180912951927
-598.9507120168458,356.23072099034846,653.2506003579205
-588.4823053744144,413.79574064537843,610.0431849816197
-576.5944537635177,440.8212794379325,614.0547485634748
-557.0893220416759,403.11013444958274,740.0610810011575
-557.5981604319518,439.732222522472,940.0865739064818
-570.9951920380558,494.4236818893302,986.7967144743619
-346.7952868716637,444.538145034237,798.016651965758
-528.6504565779344,384.95612670993665,897.533816338913
-562.9129213339928,303.23301025324656,814.878679263561
-537.4210357257575,388.61078961724957,865.9929741552927
-507.4393396317805,403.607755961516,838.9195087007288
-462.4341645719997,446.4185017309683,906.167753514197
-542.8856949111063,469.33662361764726,802.8450082342085
-629.7257473245197,441.44330632784903,636.8046172750124
-704.9593898018182,445.3641151667492,576.7943181412613
-758.3038040513326,680.5116935956725,433.91576124364593
-814.7073669397807,718.9315413520418,354.449276766276
-802.8450082342085,587.6135071609572,390.391214125109
-714.6752458790719,405.30456373991126,415.8749420036404
-600.2977571341896,404.1043577572362,382.2701942049528
-490.41823660475296,362.2837564305854,560.6654668005895
-545.8755028475575,386.48977989425543,622.5469451851551
-538.3030902499835,328.4679273758113,630.7056946051914
-576.0580830354913,465.1241759418354,735.6436703665371
-596.7511841454524,442.7403853507569,809.9769034277762
-561.0886490289753,446.5806366088318,837.9701529064462
-558.7718537930895,505.0899134770794,892.7523670162595
-485.8182967680095,383.74368413270594,800.0642421214177
-415.79234499038927,355.3445876012706,714.8669525271117
-423.6645541545788,428.738662030357,694.8784753203184
-430.3620502414179,398.15635308693595,730.2024646540868
-548.5644945011803,383.9466076590885,767.7259818592486
-537.1661066725131,322.0253603422168,775.9550916979805
-521.2901449526598,368.36534392478575,779.9615566987709
-625.8243130936661,357.4604987431998,766.6583389842608
-666.0776106009698,403.6699586505076,707.0304334303764
-574.0237491906003,490.67520509042345,566.8296513080411
-420.9490498794186,473.77034971167524,541.7069029689038
-578.7593112836698,526.2367883018156,645.1306001539773
-669.760825562246,479.9834805973498,585.0540194663826
-548.860212202944,568.2470568440804,610.1155848327411
-510.81663972916346,614.1689567793284,586.9823028251238
-513.0120887357049,373.18350303110645,462.1751566539033
-559.5101283312854,498.0538716075317,539.5491834622426
-514.7884343787125,642.1989160416657,688.8682679610265
-443.983419414377,750.1583109420649,709.1881529370378
-579.2385779037695,851.5130039310062,675.4233096929125
-598.7243350175647,878.6405143448579,663.2662530017897
-614.7471358720868,914.3601535692618,749.2466846476626
-692.633060219341,856.8216465357692,736.5002319854385
-715.2789178771549,705.5090168406134,669.953551926499
-591.1590604334815,652.5622919141604,483.6095914506993
-585.9187388149878,811.2178980589703,491.00151427857634
-492.28635670692853,644.73087139849,559.6844998037046
-250.6513437310397,551.8785721933587,771.6223175090373
-202.5564285459357,582.8820239327396,819.3338193980616
-220.7226728801375,481.9015667939613,760.5329036929024
-248.85868262862448,388.13560186200186,634.839624132604
-302.8628532679356,438.74309779588344,622.086033456889
-322.4954495163996,547.9302310167081,699.9158734124294
-393.5125654530344,654.3151840842694,851.5537925795252
-436.2376550605967,709.6205126113404,940.9931016198193
-604.116594351792,633.1152840164583,891.6418960603266
-699.515124940729,548.1362136917296,823.7808018028584
-657.6343603575126,430.82806055074883,722.7636348804128
-452.32061917168454,415.94326298991,537.5077116038607
-435.70944206227415,508.8108579382358,553.1409808650253
-472.6466224449737,684.2907618809686,673.6592006444607
-503.26564117206186,720.3346708610994,782.9686998108427
-495.221099967879,626.6778155639286,700.9875951522693
-444.17920492726876,477.7829330097435,537.4210357257575
-386.46734613756996,374.91192201210407,334.55155430243764
-367.23039977974133,506.0606833118344,306.92540266043966
-423.30969291246254,802.4361020328043,517.0154945878563
-512.5501572912259,915.9590685912112,585.9381134230345
-629.8287386620304,594.8973400702585,491.07391412969776
-665.4606822921182,401.8314103185084,502.9648248892334
-625.7254006210072,378.6634579596499,542.8846751948934
-586.5754360561457,530.1310845191783,641.076208491177
-508.03689333258563,680.5188316091633,653.5187857219337
-349.24158606659773,477.6850402532976,609.4864199293338
-230.65266936211654,275.7251456919539,627.6424671014058
-299.99031269597674,415.29574319466894,598.6611126123601
-321.4777727358477,531.7412164194706,621.4935783371488
-421.39568558070295,590.5115406382405,615.8739222874275
-434.21045922919654,567.1151718476748,584.3636715901965
-394.6097800981987,428.0564718838748,644.2954525755483
-379.7933035236294,304.20683923664046,652.7845900485895
-305.615067326763,318.33398765123667,567.5067428734584
-505.4274395435751,574.9088628634652,528.3261868222074
-768.1226514660971,469.6303018869849,638.5605685937604
-728.6667720373421,316.0844936854074,808.4279545002627
-594.3864622475566,417.29642640453164,994.5557351389109
-532.7395185919759,421.67610753927187,1105.3519805438148
-550.8517179668899,347.7426032335202,1042.5374618243745
-519.2965997562878,245.28457730213682,862.8236961653573
-511.807803888178,252.8947193995911,855.0605966359562
-500.19935451963727,168.85174855837622,985.0305659934842
-637.1095124226929,241.7614577862981,798.2766796000674
-571.4346897258494,167.92074765592739,819.1329353041049
-536.6011838905233,272.95967532235784,913.4913553558046
-427.7423992902776,306.12798458189087,824.7434139079096
-407.1104811530951,287.0123844534067,868.2873356344929
-442.36512978438105,321.89279723452967,844.0945684815916
-500.812203963637,263.25299669102094,725.6779838171037
-707.1833908623231,373.4231363411563,749.687202051669
-662.6758373144755,255.77745713367972,613.3888738764003
-705.5375688945768,311.04913502572236,698.9022754967293
-509.4553185848379,291.107564764726,803.9473214604377
-503.8876680619784,476.87844472883205,815.1774561139636
-490.0562373491458,542.0148572652231,756.2959828279791
-502.4080598369475,565.076759137932,728.5607215511924
-508.98726884308104,467.87537028444984,669.9209210076837
-666.1683653439248,454.8474759474439,804.9711165382676
-707.8737387385091,378.10873233978987,839.9269883191508
-605.9408666568095,509.07700386982316,864.5602728760588
-583.4591833092851,695.1058720358125,919.2140027430368
-575.7256555500605,583.9302921996809,609.65977168554
-611.4034864097323,397.58021342660345,507.71364329307164
-639.0316774841561,362.8670341044088,495.6432624800518
-654.42837258391,468.2587835805296,585.3232245466087
-545.766393212769,401.96499314240856,622.4959593745061
-455.43075362126723,553.3194312022965,752.8513814605396
-675.4447237333851,760.600204962959,807.7253700295208
-773.8014510561711,364.9309397194761,607.4316917601833
-868.6350588631185,230.8851646586755,677.1068611605391
-640.6244742088278,109.57462538175626,724.1025222680529
-489.8849250253655,159.72936731707568,840.0044867513371
-547.5447782882025,366.8857356997548,1022.8977275624195
-513.9971345974416,199.27498177257272,914.077692178267
-566.7919218081609,202.84602795042142,834.7825200246772
-648.0938954688911,110.69019491875412,841.724748002631
-638.213865081348,-18.259446396067975,708.8710211948015
-693.8383647830809,195.13799309652126,726.9414122049835
-573.9819408258683,276.4114147032881,834.426639066348
-479.3441185318126,233.75770523063434,906.631724391102
-503.7897753055325,116.74934865626896,781.0720276547038
-746.370065210852,261.5623072099035,753.4020282155477
-625.1655764200823,84.30289650390299,508.56510633090824
-585.8147277612642,142.13926264320642,520.7333799003738
-359.4662805341274,16.549790193389182,520.6222308331592
-536.5287840394019,232.36579259991947,701.6993570689277
-577.3266100044359,220.5095521916251,638.3341915944793
-683.3414060866862,198.64377743673938,695.6891497096359
-682.8774352097812,187.17400947316364,711.4335680380151
-757.3055018788273,369.94182519004966,748.9479077972601
-750.4876792788568,256.66766938760946,635.6186873193192
-812.2529100151429,299.59670223776726,622.7743419006491
-639.0551309570548,223.8328073297202,523.5845064318601
-663.3621063258096,448.7006266156129,553.8588610789618
-543.4404205309663,416.99968898655504,575.3850703349259
-739.205539098469,526.8414800161116,572.0822095210904
-734.7249060586439,538.554960154589,587.808272957636
-737.1049236997345,496.4733114774159,638.9348044439233
-605.2138089969562,426.1659180250137,680.393406514967
-503.52260965773235,367.8401900751021,737.0580167539374
-520.9352837105434,380.04007484717005,787.7766617550337
-533.5838436163216,225.38073654102067,788.1090892404645
-533.9611386151234,16.743128387369797,820.2036373277318
-586.6835259747213,94.70522553573342,838.7736892822728
-625.8181947963882,106.43797831063617,818.52518444117
-619.639734261955,160.06179480250648,763.4921201429644
-543.8636027593521,272.13370518984567,815.2692305731316
-506.20038443301235,225.27468605487095,800.2926585531247
-430.2305068499437,248.5721423727777,875.9199114886329
-342.1453809404843,209.13155868721736,869.5232316846223
-358.6882370636252,325.8207440869206,923.8261791743358
-291.70001988446614,374.8945868364835,846.1717304074276
-309.4685748956066,433.34777931301727,877.1058414443262
-303.859116008015,347.80072705765986,834.3073322694296
-450.42700616418455,348.8969219866112,828.183936410497
-429.8970596482999,348.06891242167313,753.9261623490183
-502.8047294437959,462.69929078737397,960.4523461120772
-462.8685636787282,345.899976036669,914.348936690919
-442.7271290399882,276.45628221665913,954.131125307827
-369.5839047992944,201.50000254929057,857.3641355610736
-373.05603850448426,255.6918009717896,857.1296008320886
-378.32899104179313,324.879546022342,801.8721989670275
-443.89266467142204,317.64771863990256,800.9146854430413
-494.9957426848109,290.7486246577578,776.6923465199635
-644.4739029128194,412.8270102430494,883.9308020577874
-568.7324417614578,410.90280574916005,735.9363289196617
-539.3758317060363,375.5380277668725,701.1742032192442
-534.6484273426705,286.90429453483097,744.7140460809757
-582.4996303528728,310.0283990965315,692.8992061509283
-585.7800574100229,314.0644358674981,708.5355345607319
-601.2828029959263,268.8145289166025,826.1944700789771
-576.6525775876574,167.60871449475613,779.8096189830371
-638.1547215409952,273.3910152804475,872.7220814447339
-566.8214935783373,334.14366781724647,806.8667689781935
-443.41951634860027,282.0127158611759,710.7758510806443
-335.1949952328267,231.05749669866876,732.1919309856067
-466.63845451810766,280.297553190947,930.2126618162167
-587.0801955815698,392.9690567115172,877.0079486878802
-473.87436076539905,283.3414060866861,831.978300438988
-314.47946036618015,107.69120953638604,799.6369810281799
-268.0935895540272,121.8214170996212,690.3947831318545
-365.9119067163609,169.5329189886455,747.6375724635834
-416.2767101915537,53.99489122177299,762.9720648743455
-436.4273222762106,147.60392182855514,829.0721092320009
-504.28331795261386,355.1916301693239,1051.06228936487
-456.50655422595895,354.2228997669949,985.0601377636605
-480.8685942702146,132.96487587504402,883.4005496270389
-589.424523155206,330.5899568150184,822.2389908888357
-637.5581875564031,435.74003354866346,856.4851401854866
-669.6109272789383,358.43330801038076,836.642482397149
-681.8709753075719,291.69798045204027,718.9447976628105
-584.252522522982,184.01492864535803,446.0473250294443
-339.5522426108814,-155.35274533097441,352.74227182575095
-256.0680762543784,52.33458928380232,718.2819821243748
-385.97176405806266,384.8765888453244,1013.4847272004204
-420.2994906517517,435.43819754962203,1012.8004976215121
-421.1978606353852,346.3884201026855,1005.2382821860677
-416.6254531363922,287.6140170190636,927.0127923398919
-315.6817057812811,207.79878959685522,744.3367510821739
-245.76282420602348,105.9974609066297,671.1598762064518
-325.15792854848496,52.93866916837045,725.0936864270674
-537.1355151861238,132.80070156475455,815.8402716523992
-581.2616948703177,189.62336781673662,642.3039468116024
-439.44772169905127,215.36406418093847,616.8691653112938
-377.2297369642029,300.9875951522692,727.4013042170365
-388.19984398341944,371.7355060086778,840.8131217082287
-360.0709722484233,316.7544472373339,774.7008407560177
-286.8074214945981,232.2352689246583,905.5956927187165
-315.64397628140097,244.55853935849655,960.0668933835714
-363.9407952766746,307.186450010962,998.3786512213651
-355.0539684805719,352.76980416350136,912.0168457118385
-382.493512055595,441.6849790703248,879.9080215975895
-451.5313588228396,565.8833546623974,862.7563948953008
-374.40614277046706,515.0974083912448,875.8577087996413
-345.8408324963163,483.39647076218694,817.5228034038129
-408.08838900134094,471.1415213146182,691.0443423595215
-385.3456583032942,320.25411328027417,711.5171847674793
-299.1765791580204,207.95378646122788,775.980584603305
-292.3251059230217,285.9141500920294,846.4633692443393
-311.2938669168371,367.2375377932322,838.0558090683363
-291.72755222221656,409.6444759423453,838.205707351644
-205.56051250936866,413.2012460932124,878.7302493715999
-291.846859019135,514.8822482703064,924.190217862369
-434.7264356329634,569.974456108865,902.2408263780192
-483.17621206018373,546.6066393722627,842.7250896075623
-443.36751082173834,405.6074194551657,686.8115003594501
-322.26499365226664,361.6199211759368,633.8301050817558
-318.05764455751967,411.8837727460448,633.7230348793931
-358.28239001086,346.1049389954776,598.02073083061
-337.675964779002,226.57278479399184,661.5266171424494
-374.55808048620077,332.5529105250009,797.9789224658779
-324.0097280926718,422.10030948387066,904.3985458846804
-235.41576379293645,441.71251140807516,1011.6237451117356
-257.7638643165607,429.50242947387744,924.9886556571307
-281.3651960659349,316.5698786027849,822.9762457108187
-280.2740997180485,316.84316254786296,854.388603651604
-342.9224046947735,433.9239189733498,911.9240515364576
-422.8385840220667,558.3823221997319,914.2316693264266
-349.85953409166234,537.451627212147,801.5815798463289
-384.0954862261833,536.8336791870823,702.9556474433167
-299.6731809537406,466.576251829116,708.3815574125722
-239.21930526734414,546.8992979253874,657.9963596131198
-338.76502169446246,664.6877374026809,762.072675174499
-460.5211769564531,654.4446880433176,807.3786665171084
-496.97399213798803,577.0298725864593,771.7722157923452
-382.53124155547516,443.5449414427965,656.1985999296396
-242.68837982389505,407.99661454217295,697.6592414331093
-403.4160493134761,471.3169125032504,714.6609698520903
-582.1570057053123,481.03480801293006,778.6695762569278
-523.9067367551611,305.9189427582304,717.3387446273704
-375.8561792253216,219.2359266416157,672.7536926473363
-417.7920084840389,386.73451178537016,761.8269235671714
-542.160676683679,617.2668546343554,904.3965064522544
-381.058771343935,574.3459795139014,1005.0700290109264
-267.2982109079044,402.0710436285582,877.8430962663093
-222.79167707626968,323.04405683898176,733.565488724488
-318.32379048910695,579.8718216720288,813.6845915781639
-309.96415697511384,691.9712643971184,809.5068142535933
-359.8680487220407,642.2009554740916,824.626146543417
-450.7951237170696,612.4099463119416,874.3852385881011
-304.3526586550963,471.25776896289767,794.6373124359492
-181.03327843861055,446.13909948861243,690.604844671728
-307.3832552400668,640.4205309662321,672.3580427567009
-370.385401742695,745.8265564693346,722.0794053015046
-357.56858866177544,634.0575017972499,781.5176436397751
-196.074092580035,447.3484829172042,812.0387696104175
-155.75859238373963,442.6394334456721,753.7895203764793
-202.46669351919363,608.9408717553905,705.43253812464
-289.70953383673327,826.2403573085612,699.4682179949322
-296.7170236523176,873.8141975088334,820.8664528661675
-120.4356227661842,675.2428199232155,835.950095088537
-13.671233295773787,449.13910458719346,740.1967032574835
-20.278076611279083,405.9969510485232,669.6007301168086
-150.9271769666502,620.5024141781342,745.4125516868656
-388.5077982797388,753.986325605584,753.1766709324796
-356.8241958263016,637.1105321389058,691.252364466969
-213.8324504290456,423.7084019517369,749.0580371482617
-192.54587448313137,381.5849449098316,816.2379609754606
-312.86015101997117,537.7646800895311,868.8532781326958
-457.69554333029123,752.69740431238,979.7729091993699
-484.89239444662553,953.668174147135,931.5923378523757
-357.9091738769101,862.8206370167184,835.6849688731628
-285.05147017585006,547.3591899374404,669.0816945644028
-403.88307933902,598.6427577205264,674.9787134240541
-466.97700030081637,813.1553588636284,810.6713301688142
-328.77282252349175,893.054203015301,781.0750868033427
-334.3598476543978,737.1763038346429,652.0045071456615
-399.4779052989553,709.7500165703885,556.9312660286644
-428.094201383755,579.2385779037695,647.2087817960262
-418.39466076590884,494.7173601586679,722.2068698281269
-391.3487276490953,607.5183676382863,812.4976419062576
-396.73078982119284,680.5402456496358,753.3010763104629
-358.7157694013756,722.5933422728456,730.1810506136144
-307.4373001993546,613.3735781332056,676.373685203408
-328.0110945123972,485.75201521416597,664.7213880377092
-302.8699912814264,385.6709477752342,743.9288645969827
-317.39278958665807,402.45751607327685,877.0915654173446
-288.6184374888469,387.25354733777596,932.5182401737599
-343.55768789545874,427.03675567089687,1006.1295141562103
-415.6546833016372,412.43543921726587,1040.4164521013802
-349.90134245639445,331.76365017615603,731.6321067846819
-231.26245965747736,349.9451902535525,705.8750949610725
-314.5345250416809,519.9043506192227,602.0149592368444
-332.6936313623919,625.598955810598,723.0491554200468
-350.36021475223447,627.1458653056854,879.7642416115596
-396.6023055783576,627.5027659802278,879.0698148705217
-536.7724962143036,655.2451652705054,829.7818317162335
-431.7009376290579,517.539628721327,666.9861777467331
-340.2446299194935,480.81454931092685,535.0430575170931
-395.522426108814,672.123508027716,678.7802154660359
-555.6882319650442,802.2341982226347,809.379349726971
-618.0499966859223,567.8289731967594,503.11574288875414
-437.1778334089624,299.8995579530217,553.8241907277205
-343.27624622067685,307.2649681593613,594.4517240851872
-304.2731207904841,560.1015637348127,778.6410242029644
-442.2917102170466,738.9964972748086,760.270836626167
-530.9927447191448,626.6716972666508,669.0551819428654
-502.4977948636895,404.7243452147268,536.7939102547762
-387.8725150790535,264.5572137274197,538.9832409640397
-471.243492935916,490.55079971244015,642.9371905798617
-492.89410756986337,583.7844727812251,665.8461350206238
-443.1146212009198,454.8790871500462,572.835779802481
-532.4346234442955,460.24789301137497,661.7458561282396
-656.5167513880888,454.27949401681514,750.1736066852596
-618.3467341038989,390.1077330179012,531.1834316509716
-486.4229884823054,492.59838986809973,426.84810817149594
-464.55109543014186,733.5369366705246,563.7246154395233
-344.0757037316515,946.3945383999634,1106.4124854053118
-93.65522375123005,516.7717824129545,1307.837028954842
-239.68531557667504,292.8930878536504,807.9813187989784
-294.49812117287763,165.5264539878552,364.1080287356029
-397.72195398020733,89.29726257182627,402.0659450474933
-853.31892134419,456.60138783376595,405.77567263030704
-1109.3492680986883,745.7867875370285,71.29692606547599
-1093.2071604472478,714.9566875538538,99.11519224199905
-1214.563586953751,709.6725181382022,266.0735317361179
-1138.421377330689,659.6340238511623,361.57403394635276
-739.4890202056769,532.5009049981392,340.5066969862288
-330.8591618952446,571.869088832578,342.5695828850831
-451.8566482947796,766.4962041063973,367.5730244273019
-440.65608541143007,643.7325692259844,493.742511459061
-488.24930021974893,560.7817144488689,693.465148649131
-707.8043980360267,702.6497325794232,1219.5194077488236
-759.9394288569492,737.1579489428093,708.4233657773043
-687.0358379263051,414.9796311686458,655.6581503367613
-642.4477267976323,443.23392799783824,824.9891655152372
-645.7108186791617,1029.5462772710355,1054.5191273268651
270.43689741145045,404.4408641075189,1611.9469951512497
-101.37304788077479,351.88672992306243,1896.9780710028404
-242.92699341773186,-202.11999000678114,1260.9300831578573
-469.4039248877038,-138.4774617224027,825.6193501348575
-780.5723667103446,241.51978504382234,215.28452631632618
-1048.4416186975168,648.8229925611703,959.5009508853688
-905.3703354356484,751.121942763329,843.5602371859914
-427.60167845288663,494.4002284164318,678.8995222629543
-354.0750409161131,262.0752244650314,292.24658777462236
-500.72144922068196,517.0409874931806,120.43154390133228
-754.7195015627152,887.9617402476891,272.3600821891268
-418.23864418532327,769.8235381093442,336.66848516057985
-166.04243039162202,606.1213564265066,423.4157433986122
-330.97948840837597,715.7255535784392,420.5748140292557
-456.48106132063447,740.2956157301425,461.7825659119067
-310.83601433721,530.4247627885161,484.2958604620335
-224.97590920446842,438.3535662025259,646.801915027048
-369.49009090770045,569.4003558809584,895.3709982511868
-479.62148134174265,484.7108849607154,846.9110246618368
-502.3948035261787,309.19835009916744,670.5541647759429
-441.4575823548307,328.8482815232521,757.7429601341947
-363.41768085941686,491.6928818709754,864.3267578632868
-320.5039437524537,617.0710691214636,1076.4736173922797
-352.322148746004,656.6758271173134,1150.4336343195691
-296.2540724916256,481.01339397245755,1026.2831853895061
-212.5486277169064,335.20621211116946,804.3205375943876
-146.66068433155056,466.1000443576553,789.1675546695355
-156.72630306985567,698.2792288905998,784.3086069146957
-148.52166642023525,782.309963137259,670.3349257901526
-118.26668638118012,778.0659042588449,655.1034247169014
-247.38417298465842,784.4126179684195,817.981675699653
-708.992367424146,908.901612681191,920.5365746712691
-945.1107156878243,548.304466866871,627.7944048171395
-565.2042236645542,210.84468192502032,434.46844743107994
-186.42145890798594,273.86824246812114,459.552446554124
-318.93562021689365,635.6543773867734,562.3123084845488
-561.2252910015143,962.1726073633708,950.0430830099983
-609.3507976730077,566.1495005939848,754.4268430095905
-618.7801134944145,365.95473479730595,857.0011165892533
-483.8614613553048,319.57906114728274,980.8425915067837
-127.23407075810805,242.99735383642735,951.1209230471162
-233.26314286734004,400.6444606466021,748.8449164597494
-700.6439507884957,645.3967460855645,882.3053744143006
-952.7330943798343,405.4952506717381,659.5595845676149
-848.9331219121718,196.9602259691128,363.54616510225213
-620.5911294886633,310.31391963616534,260.62008942911194
-480.0079537864613,470.9120851666982,171.91803521080087
-625.2318579739259,636.5384713434252,392.88645969826604
-797.9646464388961,642.9045596610464,519.7901424033693
-876.7825914048121,400.7576491462426,629.3158214069025
-673.505223496301,114.15621032666611,774.6141648779146
-651.4885307418946,311.65484645623127,813.5234764165134
-448.2295177252171,359.0410588733156,667.27271800258
-207.21347249060588,383.88440497009685,1059.332187852121
-210.57649656100708,434.2410507155859,1063.0439548673605
-135.2602570704573,403.3079593949004,1130.98764613808
-152.85546032539148,383.57033237649966,1071.9256830823983
-169.84291271739076,386.1604115574636,914.6783050277108
-188.0213936461483,463.81995890543664,929.8425048309056
-295.0926157250438,498.62083382194743,833.9300372706277
-405.79708667077955,467.85497596019036,757.8082219718253
-485.1656783917037,457.28357798024814,803.750516231333
-546.6851575206621,515.7224944298002,794.782112138192
-510.73302299969924,529.2276159544799,606.8932815997309
-303.3543564825909,465.65340865637097,602.364721897896
-221.99018013286903,733.6032182243682,783.2124119857444
-274.80638138406084,939.9815431365453,883.765608031285
-279.82746401676417,715.7275930108651,896.2204218565973
-410.9690873030037,499.44476452203355,824.3426654362092
-512.410456170048,380.1858942656259,811.4514130717423
-417.16386329684457,321.24017885822377,793.4534219126817
-351.68278668046685,336.17494251349854,790.4595351113786
-497.76223277062,464.83661596977566,772.1393136290171
-512.5083489264938,243.99871515757167,725.5678544661022
-538.0563189264428,228.12071400529234,658.5194740303774
-575.9377565223599,301.95836498702414,661.6285887637472
-465.2322658604111,332.72422284878127,737.7504040625495
-456.1088649028976,379.3629832817527,769.1270719358803
-438.10373573034633,360.5849092197642,847.9521549152871
-479.07287401916057,349.68210347060415,890.5457011313752
-469.38556999587024,328.8176900368628,729.8516822768224
-437.2940810572418,269.9708871021195,667.7377085956979
-385.1539516552544,270.0973319125288,727.3870281900548
-316.26498345510447,343.81567609734213,810.58771343935
-298.0090040941606,451.54665456603436,759.4774974124703
-381.66754192308287,494.96209204978254,781.6257335583508
-505.9332187852121,476.3655274737041,756.2796673685714
-546.5352592373544,259.877736026064,740.7024824991206
-515.1891828504127,255.9079808089409,756.8843590828674
-549.8452580646807,356.59170052974264,736.4023392289927
-562.8792706989645,379.48229007867116,689.0344817037419
-517.5906145319758,340.26706367617896,670.2217372905121
-507.56680415840276,379.40785079512375,729.1093288737745
-489.3342782703574,309.4859100712272,713.9196361652553
-466.5018125455686,241.71353112428815,942.118868318947
-515.7428887540598,260.62722744260276,851.0510724865271
-518.9335807844678,232.79407340937018,764.755548530844
-549.5964473087141,179.00608260721043,780.1756971034962
-538.6895626947022,143.99616586703922,768.6834953832349
-487.80470395089054,197.87389169594104,781.0383770196755
-447.5524261597998,209.5934901316964,828.696853665625
-397.78517638541194,201.4000703604187,821.6210428637711
-344.654902540623,239.39775560461527,790.8908750694683
-422.5255311446825,325.74936395201223,860.0765806875946
-512.2279269679249,373.5047136381945,929.2153793599242
-511.67422106427784,388.0948132134827,831.0585164148819
-481.8546598481644,360.5696134765695,808.0506595014608
-456.7064186037027,294.251349849337,769.4044347458104
-418.30798488780573,293.91994208011914,766.0567064186039
-421.345719486267,390.7022275700673,769.6093977046189
-444.19348095425045,390.94899889360795,777.1155287483494
-506.1759112439009,364.30993254577254,772.3524343175295
-485.0698250676838,193.70223266864835,749.6963794975859
-402.50850188392576,77.63099529400968,821.9677463761836
-375.6818077529024,198.10128841143512,904.3801909928468
-291.9070222757007,376.83510678978047,1062.0140414922528
-273.0239174437754,476.9997909581764,1030.5659934840137
-276.71121126990363,365.075739421719,1058.363457449792
-217.57276949824865,246.1187051643528,788.8473637786605
-371.9914547781353,174.8588967690292,904.513773816747
-441.40761626039483,186.96700708192913,899.5079869272383
-451.76895270046356,222.11356579463936,926.7068774759986
-406.42829100661294,229.2546384341238,899.8893607908919
-427.36102542662377,340.9808650252635,828.556132828234
-424.8168334752439,348.3462752316031,789.3235712501212
-398.1125052897779,232.21283516797277,805.8134021301872
-500.1759010467388,346.5046677509649,949.1100426751235
-500.36862741099156,415.97079532766037,929.2500497111656
-420.7726389745734,356.08796072053156,793.2821095889016
-327.92339891808115,188.40786609086695,728.5199329026732
-261.402211764466,22.094191186592774,792.8711639550714
-307.7085447120067,135.4264708131727,878.1367745356469
-390.94390031254306,380.7640733583844,982.0275017462641
-446.00959552956414,377.0380303161631,949.8187454431433
-489.66772547200117,171.3704476044317,843.893684387635
-515.1575716478104,47.37316004955821,800.7586688624557
-533.1433262123152,36.257743469992306,839.7730111709913
-516.7207966023057,44.11557463557892,867.4654443668329
-401.93542137223216,62.32709436963694,841.6503087190836
-327.6756078783275,68.75110256815529,760.3248815854549
-337.6555704547425,138.75074566748074,791.3354713383267
-396.31270617387185,217.21688853991938,860.8352495500503
-423.86747768096143,218.27637368520342,954.6103919279266
-457.89642742424786,292.0844528967589,957.77559105301
-477.2200496601796,400.35180209347743,933.5736464541918
-451.27235090474323,344.82315571576436,804.6376693366236
-459.70642370228376,274.1894530752092,687.0103450209807
-459.324030122417,270.4236411006817,698.8023433078574
-522.7615954479869,313.929833327385,748.725609662831
-563.9785247765548,422.68358715769403,759.5152269123504
-608.3188448654739,274.7727307490326,621.9881407004431
-619.7855536804109,69.2087512045398,555.7922430187679
-680.810470446075,-73.04747288829519,602.453437208425
-697.1881325427134,-10.383464281890351,672.6394844314827
-518.1300444086412,50.489310824797464,714.3621930016877
-228.70297196290275,4.88520544732401,628.5857045984103
-157.50434654035783,64.73158519983889,892.3995452065691
-347.9893745570608,273.4420010910964,1132.1705169451343
-443.3114264300246,451.0908414188332,1012.4028082984507
-360.3340590313716,368.8853991934045,978.6012552706583
-346.33743429203656,360.68688084106196,939.5930312594006
-325.1008244405582,441.1363717477426,868.9960384025128
-336.5267446069759,557.1158346632134,848.8107559666146
-418.296768009463,650.2138854756722,804.1012986085973
-553.6498192553013,596.072053147609,688.4420265840017
-564.4894025992567,460.1785523088925,625.9446396067975
-521.2830069391689,460.05618636333514,650.1394461921248
-488.3023254628238,495.1160691979423,705.4600704623904
-417.2199476885583,429.3596692040606,769.5400570021365
-454.9555658660196,401.82733145365654,686.6514049140125
-532.0226580942525,325.1854608862354,701.4536054616002
-504.3383826281147,290.39784228049336,729.4580718186129
-440.13806957523724,239.3590063885221,703.1198217536061
-417.13531124288113,286.49028975236195,801.4204646846783
-419.6274976673992,402.7185634237992,816.68969525781
-410.4500517505979,495.71362289874736,840.0615908592639
-421.9830421193782,461.0524491034146,847.8542621588413
-442.8025880397486,356.5407147190937,824.347764017274
-400.878995375587,386.9924999872536,805.2494990644104
-413.20328552563825,413.9232051720007,777.502001193068
-382.9472857703702,371.06045387568645,770.250799202582
-404.9252293086834,475.79754554307544,781.3422524511429
-477.4596829702295,515.1524730667455,791.8963152554645
-465.0721704149736,471.7931199747111,713.7360872469193
-454.81994360969344,440.4806942227978,682.5980329674253
-408.1250987850082,530.0576649518439,788.960552278301
-398.9180810980304,549.6841429030301,828.2777503020909
-329.05426419827364,401.525495454615,763.1056476982457
-328.18138711996454,409.4680650375001,786.6396781775633
-483.69422789637656,531.028434786599,830.9952940096771
-490.4457689425034,492.70851921910133,866.3457959649832
-335.4509440022842,374.88031080950174,806.2702349936014
-293.419261419547,459.4249820275018,779.1427245797496
-406.6822003436444,638.5524108640566,808.2393070008618
-457.04904325126324,638.8715820387187,799.633921879541
-371.47037979330355,475.2214058827429,746.5230226427987
-344.54273375719544,481.729234753968,633.0908108273468
-393.68489749302773,540.2833791355866,647.8552818750543
-354.76946765715104,594.1478486537197,648.2570500629676
-439.7730111709912,645.9463731243596,740.9992199170972
-511.0511744581484,592.931327211637,806.8290394783132
-463.4630582308944,506.95395471440304,752.8880912442069
-315.9947586586653,479.050440262475,790.5125603544534
-273.090198997619,532.91898864546,794.8973400702586
-281.62522370024425,595.5581161762682,869.1265620777739
-397.31100834637726,623.4626503444092,859.4504749328264
-431.32874121132096,576.5577439798504,776.6821493578339
-409.37221171348017,578.9530573641357,631.7916923720129
-431.04831925275204,649.0075611957193,658.7030229487135
-477.7808935773175,656.9654265217991,642.2774341900649
-447.3607195117599,560.0781102619142,650.9093319329231
-441.5442582329338,568.2643920197011,705.9138441771656
-423.70330337067196,584.201536712333,772.8459769646108
-382.6240357308562,571.960863291746,738.1807243044262
-344.6355279325764,590.8358103939674,719.0630847435159
-320.4509185093789,587.0618406897361,750.8343827912693
-345.299363187225,657.3172286152765,797.3212055085071
-402.3902148032203,565.2572489076291,836.0224949396584
-353.22153844585057,510.57088812183576,821.2457872973953
-368.66208134276235,506.82139160671596,821.026548311605
-346.4159524404359,575.9377565223599,781.8806626115953
-422.2757006725029,510.18747482575606,718.1718527733733
-411.13326161329303,553.4703492018172,808.459565702865
-472.58951833704685,556.8619253261818,701.5627150963887
-486.8298552512836,510.9328873774429,744.6752968648825
-401.34602540113093,572.2463838313798,753.5978137284395
-380.65190457495686,575.3208282135082,683.25371049237
-381.25353714061384,625.3746182437428,655.6041053774736
-481.6344011461611,637.6856520830254,646.2094599073079
-570.9809160110742,619.8773281395788,739.1219223690048
-565.1277449485809,569.1484859763528,696.2102246944676
-495.48418675082735,563.8245476283951,595.2307872719024
-438.5014250534077,601.7926611024153,564.5597630179522
-475.9352072318274,539.5787552324189,497.4899685417549
-441.09864224786253,548.0699321378861,611.7970968679417
-374.9190600255949,649.1391045871934,722.3373935033881
-377.3816746799366,653.3790846007557,761.5322255816207
-422.03912651109204,549.8625932403013,827.9310467896785
-397.68116533168825,448.5884578321853,773.6933611375955
-423.3739350338802,476.1513870689788,804.6121764312993
-368.8527682745892,499.04911463139814,817.1251140807515
-299.7751525750384,657.7771206273295,888.2676551115825
-319.2068647295458,692.6422376652579,876.0851055151352
-257.25094706143284,676.7938082831549,888.8407356232761
-199.0669596651252,653.27099468218,905.4896422325668
-127.93155664778494,614.5615475213249,965.5550060418186
-222.7050011981666,599.2535677321002,901.3934422050345
-304.7187367755554,618.9147160345277,864.777472429423
-304.96550809909604,680.6432369871466,844.9419526545763
-303.22893138839464,605.7093910764635,688.2360439089803
-283.39952991082583,691.6602509521601,798.1328996140375
-217.11695635104752,601.528554603254,728.7860788342606
-253.76147818062236,612.8892129320411,669.3294856041565
-382.12641421892295,636.7413948698078,628.0799253567733
-497.10553552946214,765.2337954347306,618.0754895912469
-471.3566814355565,706.7887606879007,595.1104607587708
-396.52276771374534,659.2903794873887,541.4468753345944
-395.76715799992866,617.9959517266345,682.883553507059
-289.2853318921345,454.607842637394,677.1802807278734
-335.69057731233397,470.3716355738199,668.5830533362566
-477.17824129544755,510.36490544681425,689.8767672956617
-445.34270112627667,576.0315704139538,705.8302274477014
-278.10516333304446,419.66522716727934,673.5419332799682
-167.79022398066618,439.7454788332408,851.7342823492223
-333.33605257656797,565.6406622037088,939.0954097474673
-483.9664921252416,492.3414213824293,831.1217388200865
-543.2670687747601,473.10243559217474,791.0530099473317
-455.0381628792707,448.14997986060484,674.7197055059578
-345.15252405255626,536.6389133904034,715.3135882283962
-321.38701799289265,595.5468992979255,833.2090979080523
-267.40018252920214,458.9773266100045,752.0621211116948
-175.0251105117446,404.1696195948668,761.4792003385459
-92.67568435704345,406.76785650553455,692.0609994238605
-11.727858137080451,506.5593245399806,673.3135168482612
40.38433104067139,541.4356584562516,724.9968133868346
9.9741807854874,536.9193353489725,626.4412414025178
33.64033589452056,536.8775269842404,642.4936140272163
71.9846226795083,509.49916638199596,643.1605084305038
81.6913013108452,478.05009865754363,596.3167850387239
5.0123640590823575,470.0228926289814,497.0800426241378
-62.67889646311433,508.5997766821494,425.2930409467046
-536.2585592429627,1189.5601454115322,1734.5780669239753
-2005.741002279066,1781.8419133955024,1777.283781923491
-2199.007816124773,284.27138727292197,288.0841061932465
-844.8797499655847,-1136.3717477426035,532.9393829697196
118.2687258136061,-736.3727674588163,679.4542478828143
214.22708060346807,716.1079471583059,1370.6515476742823
-731.907430162186,2034.935477456624,916.3955071303657
-640.4133929527413,564.4598308290803,969.8214986769183
-679.4746422070738,-419.2869124522646,823.4198222634642
-807.3572524766358,2.461870261506223,714.1164413943601
-368.0879811148558,299.29486623872583,547.011466708815
-13.353387752188569,500.42063293785344,849.9181677739085
-138.21131579081543,661.3155358863629,992.7161670906988
-270.2156189932342,489.29043047319936,1109.0535503969245
-430.17544217444294,313.3649105453952,1197.5241290348897
-637.8630827040836,301.4933743939062,986.4459320970976
-647.0150357155604,174.62028317519236,637.4449990567625
-613.2257192823239,176.99418251900497,500.5817480995039
-534.3955377218521,336.1759622297115,630.7383255240068
-509.74083912447173,508.2989603993209,862.0793033298834
-531.717762946572,593.7256861415469,877.159886403614
-622.3562582533282,554.2912207532644,715.0260282563363
-569.559431610183,358.4975501317984,500.62355646423606
-583.4102369310622,342.5644843040182,437.6754549208956
-522.4444637057508,327.46452662224107,532.8312930511439
-455.63469686386287,305.10928808512597,686.9675169400356
-373.91973813687656,223.58399657375358,727.7123176619948
-306.2809420138376,61.41220498335314,823.4636700606221
-220.8470782581208,-58.79663289706476,868.3199665533083
-178.62368902734372,-24.40802924546099,857.0622995620319
-191.9666756741599,57.33038295442379,899.757817399418
-237.699928110007,136.04951741930222,1008.6961398642759
-272.4090285673497,171.06759188917727,1000.2090418236606
-304.7931760591028,240.42970841214895,940.6209052020823
-336.7673976332387,309.89379655641835,892.8115105566122
-360.2453437208425,452.87330535911855,852.7315648055147
-398.01767168197097,503.5664574548904,863.7689730947878
-389.6294861140145,522.9879724472679,879.5276674501488
-333.95400060163263,491.1126633457909,825.5245165270507
-297.3268139476784,432.40760096465164,783.1002432023168
-298.5086650385198,464.00350782377274,853.6187179108056
-398.83548408477924,503.3614944960818,840.2094497101457
-377.0777992484692,464.22172709334995,809.2702400921825
-297.89785502694605,351.1647708442741,783.3653694176912
-286.2006903478762,331.8003599598232,791.4547781352451
-280.46682608230134,366.99994391560836,838.5177405128154
-202.89599404485733,276.71019155369066,761.4924566493146
-190.81745550213378,292.1986611126124,773.394584287193
-216.21144835392312,343.00806085666363,808.1638480011013
-223.92764093752712,386.54280513733033,909.9417232184284
-264.29922552553626,460.7516328205861,952.2579066245864
-314.53146589304197,480.4138008392265,943.5892990980612
-210.6682710201751,370.43536783713097,851.3253761478181
-91.23543717783342,249.78764409864738,877.069131660659
-185.52920722163026,366.90103144294943,910.5831247163915
-207.01666726150114,502.65585087670104,929.4264606160108
-227.91982991133568,483.08443760101574,886.0089836998363
-266.5344434643839,394.53839996329026,901.4270928400628
-333.67867722412853,356.0155608694101,861.3053387242331
-329.8159922093682,312.5103883589198,759.4703593989794
-271.6054921915231,350.7854364130463,764.1376005057792
-161.17328547465243,400.79333921369687,828.416431707056
-165.6376030550698,513.6616479633718,898.6126760922435
-169.61041742083182,618.9289920615093,984.5390627788288
-212.98098739120908,653.7665767616874,948.4502862853268
-175.80519341467271,440.7233866814866,953.6508389715143
-225.86306230975921,324.2666965783423,866.9525271117049
-262.12519055946734,312.55219672365183,823.2780817098603
-280.9858616347071,447.9694900909078,806.840256356656
-168.38879739768424,354.632825684612,852.0126648753653
-176.948295289421,316.8564188586317,946.2028317519236
-280.8828702971963,313.8248025574483,948.5808099605881
-324.8163236171374,301.182360948948,794.9044780837494
-115.14839420189361,311.5579734159984,841.1812392611137
662.2220635997003,-168.85174855837622,587.5716987962251
955.1987681828149,185.33036256009953,1077.4219534703493
472.8403685254395,969.1076973278338,1334.4210306271766
-536.158627054091,1495.546389439819,1341.0797774979226
-640.1462273049411,1350.481560981579,1037.8161757582866
-627.6669402905172,701.7034359337797,753.6957064848854
-927.0199303533828,213.74475483472952,440.8131217082286
-836.2580493848562,-64.46187026150623,560.8490157189254
-657.5619605063912,-49.02622200241674,712.6093008315787
-490.00219238985795,129.80171618238646,953.9180046193145
-264.02288243181926,267.7254720011421,1000.008157729704
-237.34710630031668,224.96163317748673,1000.5526861874342
-373.2426465714592,131.1915893806754,1210.7600454793433
-441.83181820499357,100.02936782693378,1127.4186393926573
-363.57063829136354,-14.254816884461055,964.1467779516962
-351.60222909964165,5.067897804041136,972.1107615750537
-277.479057578276,50.076529701784,878.8781082224818
-297.0015244757384,97.5006755619911,972.6165408166908
-260.292760524746,50.40222706020915,930.1545379920769
-283.4607128836045,115.22487291786696,804.0003467035125
-401.31237476610266,247.85528187505417,821.4109813238975
-508.66707795220594,403.29980166519664,803.5802236237655
-477.92263413092144,488.0025288962082,784.1321960098505
-390.90719052887584,321.84792972115866,884.1112918274846
-456.37908969933676,282.74793125073296,781.2219259380116
-485.2635711481496,359.715091290094,709.8866585429276
-311.9301698337353,283.9848470170752,614.6227304941035
-299.6609443591849,268.6269011334146,638.4065914456007
-389.83240964039715,197.54044449429728,829.6023616627493
-371.6263963738892,104.43933453319943,818.4150550901685
-388.41296467193183,147.69161742287125,880.8114901622879
-300.2829712491014,140.15489489275137,980.272570143729
-346.2895076300266,238.114952608689,1077.3709676597005
-206.32733910152805,155.25791172316744,1020.8786894607232
-91.42377876237045,126.1592898696293,897.1065552456753
-151.33506345184136,200.4496948499233,931.2803046912046
-170.27425267548045,169.78478889325103,946.7983460203026
-296.3407483697287,204.80286336312608,858.4501333278948
-266.5578969372824,236.1948269796516,933.3584863332535
-224.12546588284482,306.3890319324132,1031.8712302366253
-291.0351649136046,423.39738850677867,1077.5749109022959
-207.89464292087513,383.71309264631657,1039.7026507522958
-74.6044775738912,332.07058475626235,1006.5537161008093
-110.3771420413699,351.3738126679346,970.6311533500227
-307.78502342798004,407.73352775922467,1042.0479980421449
-398.4051638429026,396.3331004981314,985.7882151397267
-322.36084697628655,224.5608847057864,881.5416069707802
-425.31547470339007,322.1844360714413,891.4440711150088
-411.70226326013477,356.3714418277394,832.6635497341091
-407.0003518020935,225.24919314954653,884.1959282731616
-315.29625305277546,49.55769809262083,788.0468865514729
-315.6327594030582,104.53620757343232,878.1224985086651
-285.2136050537136,65.576725997155,874.7849673435883
-257.475284628288,38.526815987110794,902.7639407952768
-319.19666756741606,171.2878505911805,983.8089459703365
-227.20602856225116,255.41137901322065,953.5060392692715
-164.59545308540635,235.86545864285972,985.9065022204322
-167.14066475299924,247.8093946454702,1021.1540128382271
-219.74476503189166,297.77141021653676,937.7769166840869
-342.5104393447304,318.16981334094726,947.6426710446484
-368.68349538323486,213.31137544421392,880.8859294458354
-442.0928655555159,321.9611182207992,851.9474030377346
-434.9059056864475,422.1808670646959,816.3949972722593
-361.6341972029185,371.4244925637196,829.4381873524599
-497.87950013511244,454.2183110440365,882.062681955612
-549.8819678483479,396.19747824180536,838.3086986891549
-511.8802037392994,178.5033625142123,757.1953725278256
-495.2007056436194,42.53919534193634,710.8084819994597
-457.16325146711677,-41.84864352250769,825.4765898650406
-538.8873876400198,44.53355631127857,894.6041716590274
-538.371411236253,156.65798208358615,886.3842392662124
-566.1729540668833,200.13664197253905,964.3140114106245
-360.64711190875585,85.89171633534389,916.757506385973
-339.6623719618831,136.3788857560941,956.1481239770973
-283.668734991052,136.47473908011403,1015.8555673955939
-291.89376596493196,120.95669775101591,1004.0105438656424
-333.2932244956229,178.46461329811916,909.0056237349147
-351.3330240194154,159.61209995258324,948.0454589487747
-281.26016529599815,124.49715244247528,976.6862282226858
-196.07715172867393,201.18287080705443,973.7779975832727
-261.4521778589019,317.57939765363307,952.7830604742701
-219.2257294794859,216.80186404123737,969.4544008402462
-285.8529671192507,251.78424844365816,929.0919936981539
-435.70434348120926,411.3912498151765,906.6857693503899
-457.91682174850746,399.21583823222,823.9776070319632
-406.22944634508224,290.09804571387787,781.9489835978649
-490.25202286203756,346.00500680660576,902.1643476620458
-415.4466611941897,391.18455333880587,828.5653102741509
-362.72529355080485,390.4605548275915,794.0356798702923
-366.7134036597615,293.9087252017764,810.0003569006747
-341.65285800961595,104.98386299092962,905.204121692933
-376.1957447242433,8.738916959410197,928.5586821187665
-432.20059857341704,148.66442669005218,950.7956335751762
-367.44454018446675,54.28765174651895,838.2699494730617
-396.7715784697119,-3.026303579713766,892.9685468534109
-441.85119281304014,91.30447196545202,1017.563592052332
-385.74844620742056,126.18478277495375,1073.2309198350101
-407.8528345561431,168.10327685805044,982.4914726231691
-543.9798504076316,222.89670784620643,933.1718782662786
-589.2022250207768,149.13655529666096,866.0256050741081
-513.33227962658,94.17405536039321,843.7998704960411
-540.4730463512005,264.264555174295,803.5730856102747
-511.8261587800116,224.85966155618894,749.1906002559489
-590.1852314500876,222.26550351037307,822.5928324147391
-630.492573916679,222.1186643757043,770.9696991327314
-703.7999724676623,293.1724900960063,863.8230180540755
-510.1252721367644,112.29522823798138,710.3496097036195
-439.64248749573,38.66427373262022,758.748400320191
-376.49860043949775,178.5869792436765,884.8108171495874
-379.2610116604549,159.5804887499809,920.1552008076154
-291.6673889656509,108.43152350700801,902.016488811164
-276.93554883675876,146.7606165204224,874.6350690602806
-374.9996176064202,178.96325452626536,928.0029367826935
-426.37190070003527,-2.4804188994202914,927.8448807696819
-422.4286581044496,23.54922425089098,814.002743036613
-367.06316632081297,50.52153385712757,850.0619477599384
-399.75526810888533,140.1120668118063,888.5164658675491
-368.354127046443,105.26020608464664,912.6521289125238
-478.46920202107754,164.46187026150622,946.1243136035242
-469.8260873998767,97.98901765638624,875.8352750429557
-504.5260104113026,89.53200124405379,765.4540541367338
-483.950176665834,120.60693508996448,797.0550595769198
-458.83966492125245,171.13183401059487,844.355615832114
-451.3233367153922,163.30041349492438,840.57042924954
-498.92878811826677,201.93440165601916,792.6315306450216
-437.57348329959774,178.21172367730063,789.7059648299879
-302.982160064854,124.03012241693139,905.7190783804868
-275.00012746452666,189.72635915424738,921.6144147083868
-239.82807584649197,201.16757506385974,933.8765021694464
-291.58479195239966,100.72838329093015,905.9678891364534
-359.63861257412066,113.17830247842028,940.2283144600858
-298.79928415921853,-3.359771175681808,941.5325314964847
-291.5572596146493,65.9782902418257,913.93493190845
-313.15280957309585,166.94895810495942,936.8183834438876
-301.64633182585294,139.81227024519077,941.007377646801
-391.83105341783386,171.00233005154666,888.5307418945308
-463.45693993361647,198.00339565498925,816.7243656090511
-460.3947321460438,201.6366445218296,793.2097097377801
-398.71107870679594,166.41054794450707,802.1016351149476
-420.52382821860675,217.1220549321124,829.0761880968527
-509.4818312063754,248.62006903478766,811.9388374215456
-413.6070931459775,182.1070396108763,813.5999551324868
-372.0373420077193,181.57474774770185,790.6767346647429
-278.217332116472,158.0244018089766,835.3321470634723
-280.54432451448764,162.29905217378004,878.4539062778829
-264.5582334436327,224.11424900450208,882.4093854680243
-170.07438829773676,134.08146512825482,848.8066771017627
-207.3378778685892,205.2087104158913,981.4452437886537
-312.01072741456056,310.1262918529774,940.2772608383087
-176.254888264596,157.69605318839768,887.8801629506509
-270.3563398306252,224.65265916495443,937.265019145172
-299.40295615730145,220.47896070523578,877.9746396577833
-234.27572106682715,204.42964722917617,871.154777625387
-335.4040370564872,348.85511362187907,924.0974236869881
-384.55537823823636,450.8848587438116,1040.752958451663
-355.925825842668,325.5178883716662,892.4719450576905
-321.2626126149093,258.59697246256366,795.1012833128541
-315.5573004032978,386.47448415106084,822.227774010493
-282.60313154849007,417.6645439574167,877.5606348753143
-212.3671182309963,367.1437239016382,914.1052245160172
-261.6153324529784,332.98527019930356,944.8792401074782
-412.69036827051036,299.1908551850021,927.0321669479384
-374.53054814845035,317.11236762808915,801.9558156964918
-216.46433797474168,313.04573937073314,918.1514584491138
-139.48698077325082,382.93810832445337,1013.2593699173522
-66.26258712200395,358.20693101109964,908.4743515879533
-54.26511601821214,323.4702982160065,928.394507808477
-245.16934937007034,499.1877960363632,940.640279810129
-220.21179505743552,444.40660164276284,894.1034909984552
-122.48321292184386,389.94559814003765,946.7718333987654
-184.6287978055707,340.0937119199727,942.0841979677057
-103.86931317014476,335.5661719343507,939.3850091519531
-105.38053259777806,494.5215746457761,974.1471348523706
-227.13056956249082,595.2776942176993,885.6418858631645
-168.74569807222653,478.12453794109103,816.26855246185
-146.2507584139334,408.2749970683159,812.9167452697915
-206.81578316754448,428.33383469380476,839.414071064023
-269.1908041991914,526.1735658966111,908.7925030464023
-257.1020684943381,459.5677422973187,826.7818266176524
-183.4754987686927,362.5580600918765,859.608530945838
-234.99971957804146,494.8876527662352,901.5616953801758
-287.11435607470446,595.1767423126145,821.9504112005629
-256.50349507732,525.3700295207844,830.4935936328922
-300.8356574365355,506.8968506064763,888.7611977586638
-351.06687808782823,507.2496724161667,884.0827397735212
-385.30283022234914,487.323397898365,789.4459371956785
-389.0380507104873,420.73388975848025,695.4240234942616
-398.11556443841687,367.3792783468361,777.8854144891477
-433.2417288268675,407.1502500854013,867.4909372721572
-417.7726338759923,376.1498574946593,875.6761993137311
-408.364732095058,263.526280636099,836.9514564096812
-397.9116211958212,157.8908189850765,715.8010125781996
-310.18237624469117,164.70456272019499,689.6197988099913
-308.20412679151394,355.4302437631608,818.5180464276793
-396.98367944201135,631.2685779547552,867.2778165836448
-488.12285540933965,642.9096582421113,791.3058995681503
-508.6986891548082,631.1441725767719,755.7157643027946
-546.0519137524028,599.8470425680533,684.6180907853345
-534.0814651282549,561.241606460922,704.5515033166271
-400.4078864851912,467.21357446222726,691.1718068861437
-321.2544548852055,292.3597762742629,677.249621430356
-256.97970254878066,238.47389271565729,764.7351542065844
-219.54592037036096,300.6867788694407,831.8049486827817
-143.91254913757504,340.3435423921523,1005.4870929420343
-111.74866034782521,355.88809634278783,1041.2424222338925
-172.64203372201519,406.7596987758307,1051.929048145901
-193.92657023550348,371.64577098193575,1000.7076830518067
-220.7267517449894,312.97231980339876,906.313572932653
-314.73744856806354,309.4420622740692,861.7458561282396
-269.394747441787,277.9634227794405,842.9086385258983
-120.93732314296933,268.6218025523497,794.1437697888679
-30.48217281130662,353.35716070217666,830.5343822814111
-64.29402497285007,516.0426853206753,821.6302203096878
-239.7006113198697,606.699535519265,854.0184466662928
-276.81624203984035,537.8391193730786,908.6395456144556
-200.89938969984655,495.46991072384566,996.2607006470101
-142.26978631846757,432.4443107483188,922.7840292046724
-101.87342262648306,477.9603636308016,856.5167513880887
-124.3156429565652,613.4765694707163,847.8746564831008
-122.06920813937482,520.357104617785,820.7502052178879
-178.76848872958658,400.36505840424616,765.3612599613529
-329.27350318406394,467.12281971927223,743.2578913288432
-342.58793777691676,514.1113428132951,793.9204519382257
-336.0892863516084,503.1595906859122,872.5466902561019
-161.6454140812612,397.80964957452346,926.5355651522182
-54.28428668301613,334.0549525067174,814.5442123457043
-97.24697016820221,426.92356717125625,778.2657686365885
-167.21918290139857,520.9883089536182,851.468136417635
-249.5408727751067,522.2588753549888,920.8741007377648
-288.70205421831105,452.88452223746134,916.5974109405353
-309.27686824756677,402.5003441542219,888.9865550417321
-297.38085890696624,424.67101405678807,783.1247163914284
-181.1413683571862,411.3555597477222,694.6449603075465
-145.94382383382705,465.28427138727295,698.914512091285
-262.6748175982624,524.8183630495633,763.6838267910042
-239.97083611630887,490.7751372792952,870.1034502098067
-249.72952027450762,417.93986733492073,936.9223944976114
-304.91554200466015,480.83290420276046,998.6774280717677
-299.3356548872449,487.96377968011507,935.9424472169396
-297.9641365807896,502.7588422142119,861.3451076565394
-282.35024192767156,447.6268654433471,767.5740441435149
-252.12075479394088,381.5869843422576,764.3252282889673
-213.23081786338864,335.0348997873892,784.6879413459235
-133.46249738697722,369.8745239199931,856.4086614695132
-174.92415860665977,424.50072144922075,871.3016167600557
-241.06193246419525,509.8101798269542,834.7019624438519
-250.95827831114602,475.55995166545154,889.6136805127135
-78.47746172240267,361.9941570260997,888.6561669887273
-105.30711303044365,357.37994116237456,782.304864556194
-261.35530481866897,396.71039549693324,717.0409874931808
-316.4842224408947,409.4130003619993,790.7399570699475
-263.96271917525354,425.0829794068311,858.1921451260116
-256.0374847679891,417.3535305124584,866.1867202357585
-340.09677106861164,455.811107768708,766.6817924571593
-360.8469762864995,522.2364415983033,821.0918101492356
-312.44104765643726,436.46403205987775,790.7093655835581
-235.66967312996795,354.69400865739067,799.9836845405924
-214.22198202240318,413.02075632351523,851.1285709187134
-228.43784574752848,506.12594514946494,866.2999087353991
-194.47721699051158,622.5316494419603,933.1351684826114
-227.68733461477674,715.8540378212745,955.8697414509543
-255.31450597298775,661.8315122901298,947.7895101793172
-212.4792870144239,506.1443000412986,882.238073144244
-211.8694967190631,470.54294789760013,796.025146201812
-219.867130977449,423.1903861155441,686.1762171587649
-172.47989884415168,372.91633738330626,730.2259181269853
-232.17714510051854,671.2496112331938,724.4012991184554
-194.03364043786615,718.1932668138458,815.0795633575177
-174.08901102823086,510.66878087828167,988.7627273329834
-349.1314567155961,550.2154150499916,931.0620854216272
-473.23499869986193,612.7597089729929,893.6701116079396
-441.85119281304014,511.25511770074394,819.9150576394591
-348.23614588060144,258.80499457001116,794.6964559763019
-333.4920691571536,60.564616867125885,705.3203693412124
-414.6716768723265,224.3212513957366,774.1950615143805
-447.62380629470823,612.2090622179849,854.8097464475638
-383.1614261750955,701.2608790973472,918.2687258136062
-278.9158377223619,568.2072879117742,841.7869506916227
-299.9515634798836,374.8170884042971,830.3498136468622
-299.6242345755177,363.3136698056931,842.1683245552764
-308.53349512830584,444.17206691377794,790.7419965023735
-294.23809353856825,478.5293652776433,751.5940713699379
-273.8794593464639,459.3444244466765,787.2851585403783
-288.5011701243544,417.18119847246516,818.6047223057824
-310.8319354723581,413.6968281727196,841.8297787725677
-390.47177170593426,383.7477629975578,883.9093880173148
-437.53065521865267,345.2810082953914,867.6357369744001
-521.2962632499376,295.98384769518645,905.7935176640342
-541.9801869139819,230.12547608000696,878.2326278596668
-477.8614511581427,167.48023025192091,851.933127010753
-383.0798488780573,197.24166764389471,802.2321587902088
-343.2385167207966,305.40500578688955,818.1621654693499
-373.33340131441423,448.7179617912336,809.3783300107581
-393.31066164286483,502.75476334935996,777.4999617606421
-392.193052673441,526.2061968154263,804.9099335654888
-355.2385371151209,475.308081760846,770.3140216077866
-303.72451346790194,405.7624163195383,826.2648304976726
-385.43743276246227,410.0513427113235,801.4785885088181
-461.60717472327457,422.45721015841303,823.844024208063
-491.5623581957142,430.6383933351349,846.9151035266887
-403.20394834117667,352.64845793415697,856.3505376453735
-305.1663921930527,239.33963178047551,818.9555046830468
-341.6202270908007,277.78089357731744,759.4101961424136
-391.47211331086567,370.9146344572306,746.5760478858734
-409.59552956412233,417.6930960113801,769.694034150296
-473.276807064594,426.3810781459521,819.73048900491
-554.6899297925388,395.9884364181449,810.7651440604081
-616.2624341645721,350.14199548265725,821.7709411470789
-621.1234213518379,303.5766546170201,802.2321587902088
-517.395848735297,135.6355126368332,718.0107376117228
-372.5166086278189,29.843932433603733,696.9903075973957
-323.6609851478334,207.79063186715138,736.3676688777514
-356.38367842229513,428.67747905757835,746.9064359388783
-392.6845558880964,553.1165076759139,785.1886220064957
-365.40918662336276,537.5362636578241,797.4241968460178
-305.44273528676973,432.3647728837065,771.2042338617164
-272.01643782535325,427.92084962754865,736.3982603641407
-352.4761258941637,475.0042063293786,738.9597874911412
-496.86284307077347,495.957335073649,791.6709579723963
-562.0420836881096,369.1036184629818,826.4432808349437
-535.1470685708168,241.43208944950626,850.824695487246
-456.18534361887095,136.04441883823733,817.0414973512873
-330.0026002763431,111.64464929410146,795.4663417171002
-240.39299862848173,211.6155873820316,804.3205375943876
-275.9321480831885,425.0687033798494,846.2390316774841
-360.6929991383398,569.6144962856838,926.8985841240384
-508.1949493455972,501.9593847032371,1019.1084621149935
-536.3105647698246,358.99007306266674,1015.2447573840201
-460.65781892899207,234.45926998516313,1001.1002737938032
-361.25792192032964,198.7304533148425,987.0108548790873
-325.3516746289508,295.31695329189887,1002.9214869501819
-344.5672069463069,457.67922787088355,970.6892771741625
-332.51722045754667,527.2269327446172,970.6342124986618
-364.6821289635095,569.6104174208318,922.9145528799337
-376.51593561511834,569.6308117450914,914.8883665675843
-457.520152141659,577.9588340564821,909.7214645164252
-477.158866687401,480.47090494715326,807.7161925836041
-395.08088898859455,405.7634360357513,746.4037158458802
-367.9982460881137,440.3389536691939,742.7684275466138
-397.0723947525404,451.6068178226,679.5011548286113
-404.761054998394,479.699999490142,785.2559232765523
-448.0225153339826,510.70345122952284,753.106310513784
-479.12182039738343,452.94468549402706,756.7599537048841
-511.69461538853744,437.2981599220937,709.2289415855569
-527.7337317024673,367.7453564672952,705.2989553007399
-468.70337984938794,309.6786364354801,753.4744280666691
-471.4392784488077,313.8513151789857,784.8164255887588
-398.9864020843,262.8899777192008,774.3000922843173
-322.9359669204061,336.4115166749094,841.9093166371799
-410.258345102558,464.866187739952,851.9423044566697
-409.79437422565303,414.7777273584762,875.6660021516013
-372.929593694075,299.2010523471318,962.9496311176601
-414.7624316152815,236.88109599098573,880.1160437050371
-484.5885190151581,287.504907384275,855.351215756655
-481.06336006689344,337.59744663060275,835.6125690220412
-357.00774474463765,281.7690036862741,759.166483967512
-373.93197473143226,382.9146548515549,805.6675827117314
-420.41879744867003,425.69073026976594,789.1277857372294
-381.2851483432161,433.268241448405,805.3871607531626
-286.96547750760965,377.9516960429913,759.8915021949392
-273.06062722744264,420.93069498758496,818.8239612915727
-375.8235483065063,468.39848470170756,844.5962688583768
-370.251818918795,461.07590257631307,895.7248397770902
-360.11074118072946,530.1453605461601,840.6989134923753
-294.573580172638,456.26998006454807,857.6282420602348
-246.55820285214628,437.04832944991415,913.3567528156915
-283.13134454681267,522.8003446640801,951.7664034099312
-352.0050170037679,612.2824817853192,946.5077268996039
-480.7513269057222,639.9004756976135,893.4661683653441
-544.0400136641973,485.4909678636436,877.341395889524
-551.4360153569263,368.77425012618994,799.1312017865429
-480.2108773128438,394.7433629220988,737.3170246720339
-378.5145793925551,466.7271698286367,656.180245037806
-250.16799824608816,395.53160355473074,595.5489387303514
-174.79669408003755,314.4070605150587,675.4437040171722
-202.59619747824183,261.3379696430484,773.3221844360716
-245.75568619253264,274.0538308188831,858.9742674613656
-181.937766719522,246.09015311038942,816.8538695680993
-86.14603355886058,225.89977209342644,806.5832878709856
-19.409992199170972,225.7019471481087,842.9045596610464
-58.90951548184141,327.1637103394126,904.7646240051395
-206.44358674980754,487.3519499523283,949.1100426751235
-352.9839445682267,492.3169481933179,942.9733905054225
-345.7561960506391,340.52709131048834,849.4032110863549
-312.56341360199457,161.24160646092193,732.7660312135133
-291.38798672329494,219.50003314077694,776.0580830354913
-243.28491380848715,245.647596273957,713.8961826923569
-176.64034099310166,315.9366348345256,844.170027481352
-258.2013225719283,464.1503469584415,905.2418511928132
-270.6979447619728,492.034486802323,983.4530650120073
-290.8903652113617,418.575150535606,971.6243569414634
-317.256147614119,402.4921864245181,881.0174728373095
-340.9767861604116,375.4870419562236,868.979722943105
-300.33191762732434,282.0361693340743,838.5065236344726
-183.44490728230335,231.2604202250514,887.5242819923217
-204.19613221640418,374.92415860665983,925.9747212350803
-212.14991867763206,436.71182309963143,906.0249932443803
-195.56321475733307,429.1638836911688,941.6202270908008
-172.65223088414498,393.1791182513907,832.1954999923522
-247.54018956524402,452.2502587529891,881.8944287804704
-308.4519178312676,455.77847684989274,790.7032472862803
-215.0122620874611,378.0659042588448,835.5360903060679
-245.5405260715943,420.85931485267656,834.934457740411
-298.45258064680604,413.8120561047861,865.5626539134159
-407.1400529232715,379.69031218611866,848.3518836707746
-466.2234300194257,391.40073317595716,808.180163460509
-430.5068499436607,402.9785910581086,836.1489397500677
-380.5203611834827,406.42625157418695,832.9613068682986
-298.224164215099,304.74015081602795,783.5173071334249
-214.53707433221336,207.26445830125482,773.3252435847105
-218.49969153584559,211.1291827484411,769.3289757460499
-214.00172332039998,289.4953934320079,882.9457561960508
-327.2157158662744,384.6695864540899,1041.8338576374197
-459.323010406204,346.7891685743858,1016.4398647856302
-444.40762135897586,205.52380272570144,809.1346178358564
-411.97860635385183,33.770859569781734,668.9134413892615
-395.4194347713032,60.97229940907446,696.5416324636853
-338.56617703293176,266.96170455762166,849.759092044684
-278.59462711527385,426.39433445672074,991.4058317570222
-270.70712220788954,516.199721617474,1089.3322388379315
-297.2605323938348,376.48942299358094,1018.766857183646
-303.5919503602148,217.55951318747995,979.9615566987708
-330.0780592761035,345.3330138222533,967.3599037387897
-334.3159998572398,464.98447482065745,931.5719435281162
-299.47127714357094,468.61976311992373,936.0056696221443
-355.5189590736898,441.4769569628773,880.3128489341418
-472.8383290930135,333.8061417507508,851.4467223771626
-581.7695135443806,245.55582181478897,838.3392901755442
-575.6797683204765,234.50107834989524,905.1857668010994
-508.2265605481995,233.4864607179822,851.2550157291228
-447.83590726700766,291.6184425874279,914.7578428923232
-383.00846874314885,310.25069723096067,892.1181035317871
-294.29825679513397,340.4822237971173,889.4199344322476
-294.02701228248185,417.787929619187,881.3142102552861
-439.05207180841575,586.3296844488179,996.3116864576589
-452.45726114422365,511.58448603753584,847.2281564040728
-287.3733639928008,339.2300122875804,756.0910198691705
-223.43919687151072,475.48857153054314,905.7241769615517
-245.05004257315193,413.25936991735205,850.6666394742344
-287.27037265529003,224.39569067928397,893.8414239317199
-450.8705827168299,272.54363110746283,942.2483722779951
-509.32581462578975,238.069065379105,929.7160600204965
-430.2845518092315,202.21584333080108,883.9246837605097
-361.98599929639585,243.89368438763492,845.5609203958539
-307.00290109262596,313.25070232954175,861.8488474657504
-331.11511066470206,391.41500920293885,927.9427735261277
-309.1677586127781,417.97555740237493,888.9355692310832
-364.9421565978189,371.59172602264795,845.0857326406061
-462.4229476936569,287.08682373695405,828.2124884644604
-535.0573335440747,306.1106494062703,728.9451545634851
-425.1625172714434,351.12500191196796,667.6449144203169
-342.3574819127837,289.1823405546237,735.8129432578914
-405.60232087410077,263.22240520463157,805.596202576823
-507.1905288758139,245.33250396414678,878.7027170338496
-541.5355906451235,229.2403624071421,780.1277704414862
-529.1032105764966,237.09421667949812,803.8351526770101
-482.75404954801087,290.830201954796,796.4982945246338
-461.7040477635075,247.65133863245862,745.9397449689752
-419.0523777232796,271.55756552951317,860.3121351327927
-466.8576935038979,307.27618503770407,918.3441848133665
-508.8557254516069,318.29115957029165,815.6383678422296
-397.94935069570147,236.1163088312523,809.7270729555966
-325.4159167503684,254.6894199344323,787.2035812433401
-365.9853262836953,287.36418654688407,943.4699923011427
-402.0669647637063,326.8965446916124,1005.5900842795452
-464.5939235110869,300.1208363712379,985.1213207364392
-486.4229884823054,226.25055447069084,926.1735658966112
-406.7800931000903,121.03317646698926,912.0229640091163
-380.27155042751605,228.84165336786776,876.7346647428022
-365.3235304614726,317.4294993703253,845.2631632616643
-293.6874467835602,227.64348681761868,819.1665859391331
-273.95695777865024,235.33520621211122,831.2104541306155
-296.5324550177686,254.95964473087145,842.5792701891064
-277.4107365920065,278.9423503438993,944.8251951481903
-379.166178052648,430.9341110368985,978.1097520560029
-417.1730407427614,384.02410609127486,891.3573952369056
-482.89986896646667,372.88982476176886,886.4862108875101
-588.2620466724112,443.87329006337535,943.5372935711993
-503.3135678340718,403.64650517760913,846.8304670810114
-422.6795082928421,259.0629827718946,758.2589365379615
-447.47390801140045,337.0559773215115,804.7202663498749
-514.3846267583732,492.68200659756394,842.4395690679285
-588.6627951441114,438.9144101196638,821.8851493629323
-663.6568043113602,289.4158555673956,911.5324805106741
-764.7208781796027,378.79398163491106,866.5456603427266
-686.8237369540058,334.9288493012395,789.3684387634922
-595.5489387303514,304.01309315617465,873.2564127403344
-482.7713847236315,224.17747140970673,698.6075775111788
-387.4962397964647,130.48186689644274,688.5766291241148
-302.84449837610197,-48.84838349487338,611.9571923133792
-137.57297344149126,-1.8993030239684299,814.4300041298508
-152.27218265156807,247.55344587601274,1005.6747207252222
-286.7798891568477,331.7789459193507,1219.2338872091898
-361.59340855439933,195.78041431069735,1089.0569154604275
-361.5842311084825,152.30583328659637,987.1627925948209
-334.8207593826638,212.83822712139212,857.846461329812
-353.8996497274809,317.30611370855496,841.5095878816926
-386.2572845976965,448.46507217041506,769.9397857576238
-439.2794685239098,522.4893312191218,780.6692397505775
-403.98811010895673,448.002121009723,702.9576868757425
-363.6797479261522,370.91157530859164,770.5393788908548
-409.2508654841358,492.1527738830284,875.4131125307829
-336.9244339300373,378.37283883895117,763.0658787659396
-241.4575823548307,234.5204529579418,768.9057935176642
-216.30118338066518,297.63884710884963,926.0542590996927
-335.8241601362341,450.1557616515325,1002.2423559523386
-402.92352638260775,462.8440904896168,1063.99229094543
-389.18896871000806,333.86528529110353,931.1915893806754
-343.29052224765854,201.12066811806278,838.1363666491617
-247.6258457271342,98.80244527947873,730.0250340330286
-148.12805596202577,199.26070574559103,801.8201934401657
-84.1863429407596,407.90076121815304,825.6213895672835
-70.04685595998635,567.7932831293052,978.3544839471175
-127.11068509633769,479.6010870174831,1017.0435367837132
-224.07244063976998,372.05467718333995,1019.8793675720049
-293.8720154181092,445.85663809761746,991.1111337714716
-282.9039478313186,471.65545828595907,857.7516277220052
-273.688772414637,447.8073552130443,795.1757225964014
-123.47335736464544,295.01817644149634,715.5246694844825
-129.50089989955796,404.62849189070687,852.4256499416213
-287.3764231414398,570.0713291490979,1041.8134633131601
-342.57774061478693,489.07323091983505,1021.6332794583269
-423.1067693860799,345.9101731987988,950.2664008606406
-395.89360281033794,135.22558671921604,778.70118745953
-245.416120693611,64.59953195025825,800.8167926865954
-162.46220676785651,339.67562827265175,914.9454706755112
-10.623097591940166,346.6290731289483,960.3666899501869
-24.982945246337948,405.93678779195756,1089.4648019456185
-289.2924699056253,535.829258717299,1104.689165005379
-301.3047268945053,349.4373715794895,1018.7974486700352
-287.0246210479624,201.2858621445652,905.6976643400143
-413.45515543024385,345.3421912681701,895.4678712914197
-491.5990679793814,489.55453697236067,944.8313134454683
-478.9372517628344,369.0261200307955,890.4824787261706
-427.13158927870376,193.2892476023923,754.4900654147951
-290.9158581166862,183.86503036205025,685.9192486730943
-0.6716625962994499,235.01399560502315,603.7525556637589
319.8309310518883,108.13376637281846,542.2626483049768
534.6718808155691,9.680543304798276,537.9635247510619
368.8599062880801,418.54761819785557,1114.947510107937
-496.35298496428453,1223.3637378717503,1656.5697766311637
-1419.7202918427804,1116.884970912595,1486.1038173076436
-1417.3647473908013,-490.56405602320876,-3.713684081720058
-750.2980120632429,-1224.5058200302858,279.5531603554731
-371.64169211708384,418.2468019150271,864.4511632412701
-170.58424640422572,1144.8965752830989,959.2031937511792
-368.07064593923513,1341.5080583073732,1999.5309305420303
-1159.682460371279,1030.402838889937,1560.9407901780937
-1469.400865739065,162.49075882181992,1582.772914297951
-1452.6877170083567,-377.3419057476305,509.50018609820887
-206.78927054600706,-1516.6851065348515,-759.1940163052624
102.8465378085279,299.8546904396507,1021.0928298654486
-32.79631678503873,1190.9367622990524,1035.674771711033
179.4129493761886,962.5080939974407,1204.4581992831397
184.06285530736798,688.4828152325209,1283.9450780847692
1.3270280880830867,472.2112036220321,1168.125710614736
-301.3230817863389,360.02202587020037,904.9471532072624
-616.7559768116533,-22.717135821100992,662.1119342486987
-766.5216970117217,31.767525097765297,997.2018987115888
-836.7587300454285,140.21709758174302,948.6888998791637
-590.3830563954052,161.42209623061905,940.5342293239793
-539.7541464210511,205.51972386084955,725.2894719399592
-651.3508690531426,158.08558478175524,515.7724605242362
-321.13004950722217,-178.88473637786606,333.474733981533
120.59265906298278,-128.4740456730892,732.3826179174337
246.72951517592657,484.45187704261906,1022.6224041849154
68.19974201179814,853.3790846007557,1018.7077136432931
-440.1615230481358,1092.9624285561329,971.038020119001
-727.9815227422209,581.7307643282876,662.3311732344889
-605.2872285642906,-67.30310554572664,446.57961689261884
-371.61925836039836,-262.43926315306453,894.2207583629478
-331.35882283960376,413.65298037556147,1249.6826133287109
-590.1362850718646,1092.3302045040866,1200.3487429448385
-903.4257366174994,769.9224505820032,784.6563301433212
-988.1855679564378,-231.7682388991144,323.6609851478334
-806.6393722626993,-933.9315668449472,705.5120759892523
-585.8086094639863,-413.8497856046663,1079.8998638678856
-331.4556958798367,219.53674292444416,1175.7735822120706
-71.67156980212408,523.0358991092779,1162.9353550906785
-83.21363564519994,551.1596722632092,1268.6391377279706
-202.58294116747314,636.0694018854554,1140.9706678631337
-273.0361540383311,540.6565952695365,794.872866881147
-98.36723039977976,23.011833806651612,606.928971667185
-234.48272345806166,33.45790866401881,789.3113346555655
-585.954428882442,526.5488214629869,1104.1997012231498
-783.8181234162533,570.2120499864889,1053.9990720582464
-657.2560456424977,46.60174473444041,590.62778828652
-428.0860436540511,-437.5602269888291,301.3475549754504
-215.1682786680467,-107.70038698230283,597.7709003584303
-82.0473862124171,642.0214854206075,616.8589681491642
240.47151677688103,684.6976286499469,911.9678993336156
156.47341344903717,937.5678748604264,992.2736102542665
-417.7756930246313,988.3232296451898,971.7263285627611
-642.9035399448335,488.4664997731132,691.3930853043598
-906.866259120087,176.3191303860136,1029.9337694319672
-1043.9344730361543,-62.75241800207004,569.5064063671081
-918.0035995982319,-117.98626442261119,991.5139216755979
-840.206390561507,294.8244303610305,928.4924005649228
-700.2952078436572,431.0870684688452,714.2744974073717
-491.23298985892234,207.60300408396347,569.0240805983696
-305.05626284205107,177.57644047661537,834.8640973217155
-95.68833393666544,222.63362106325812,865.3199614547271
-229.661505203102,447.0180948641993,1176.5281722096743
-334.8778634905906,455.2512835677831,1139.6042481377435
-357.45438044592197,494.18506829549347,1146.9767963575737
-356.7232439212168,256.7992127790836,994.7321460437561
-551.6399585995218,196.93065419893645,1050.8787404465338
-803.0367148822484,352.11310692234355,877.8359582528183
-483.60755201827334,176.6281043985459,573.1671875716988
-75.92266472240776,152.97170797367096,449.8416890579352
-124.51346790188292,591.2508348926494,957.8357543095758
-404.8334548495154,940.2446299194934,799.3993871505561
-439.1999306592976,611.3331259910367,764.6729515175928
-394.273273747916,-8.254286632030308,743.8880759484637
-564.6219657069438,-133.59098162981243,855.5735138910842
-792.9282680629982,287.00422672370286,960.6236584358575
-604.9068744168499,521.7938847618708,558.4118939699082
-127.63583894602132,200.29265855312468,503.85197799452413
135.25719792181837,23.701773796352477,457.3661749934993
-89.9475356008423,349.5240474575926,782.5608133256516
-419.59588646479693,671.1904676928411,984.5431416436807
-571.0441384162789,655.6153222558163,841.0405184237228
-465.8746870745872,234.1472368239919,961.7769574727355
-474.74927727613414,124.9070783600924,1283.8329093013415
-794.2946877883886,498.1935727287096,1211.0659603432366
-788.5496066444709,355.6239898436266,850.5687467177885
-521.1759367368062,113.50869053142512,835.767565886414
-554.0077396460565,357.5400366078121,838.3770196754244
-467.452188056064,564.0060571143051,1070.5286718706186
-350.9230981017983,636.7210005455483,1083.8053769635912
-122.59130284041953,220.86747258238037,645.1448761809589
207.63665471899174,186.2470874355667,956.3286137467944
220.76244181244363,569.8745239199932,1033.7271137442451
111.98217536059717,702.7873942681753,1090.5151096449858
8.494960052617357,563.7052408314767,1022.7141786440835
-324.6857999418762,571.5478782254899,742.9744102216354
-315.01990995905845,295.7921410471466,634.1604931347606
-6.103745927508375,87.89505080736033,588.4690490636457
4.318844865473939,343.5260766928564,1058.720358124334
-494.70818271275107,1084.6313470961034,1288.1463088822384
-992.3766015917771,988.7851610896688,951.3442408977583
-822.8273671437239,-4.2844294432859344,380.31539822467414
-451.65066561975806,-455.8060091876431,403.096878138814
-153.32249035093534,-100.40492930817355,602.5972171944549
60.98759515226912,557.0689277174163,760.5747120576344
186.13083978728721,809.5934901316964,985.2997710737103
94.10155353765049,880.9318166754193,1093.5742582839196
-231.59488714290816,803.8208766500284,1269.4855021847422
-474.9328261944701,570.8493726196,964.4292393426911
-444.2373287514086,243.18906048446718,695.1956070625546
-101.75472765929243,-199.95921135148092,332.9067520509043
103.27481861797862,155.07844166968334,841.0558141669175
-318.9549948249403,991.1916913522967,1377.4326604905855
-801.0951752127385,1136.6878597686266,1216.6642023524855
-869.5630006169284,368.8079007612182,955.2752468987882
-760.1688650048693,-12.109028057491601,856.1588309973337
-590.5095012058144,-35.69006745422749,533.0362560099525
-256.06399738952655,164.20694120826175,250.87466158168186
-49.679860094935584,428.7682338005334,594.5149464903917
-170.78003191711747,872.5242564994163,787.4350568236861
-471.8634803934065,857.524231006511,1438.3912957024063
-858.2869787338184,508.67217653327083,1029.5360801089057
-761.243645893348,-117.77008458545988,291.3543360882667
-142.94177930282004,-261.1207700896841,379.5913997134598
331.5097408391245,175.71851753656958,754.1392830375307
282.6255653051756,682.4420163868397,1128.4587499298946
-306.7194199854181,823.2168987370816,1209.4242172403422
-803.4293056242449,457.2825582640351,955.9676342074002
-1025.8447074179257,-69.92479592929288,648.2937598466348
-836.9728704501539,-275.1765383693718,361.39354417665567
-395.85587331045775,57.000912646010626,684.7751270821332
-40.18354891833604,534.4251094920285,735.5875859748234
1.356344929206202,665.1894377794661,684.7486144605957
-200.0754589997604,511.00120836371246,572.3616117634463
-346.9043965064523,467.6816242039841,790.0873386936416
-459.30771466300934,375.6950640636711,788.7137809547604
-510.79828483732985,241.56159340855444,886.5106840766216
-637.244114962806,260.1642762819108,1123.9516042685323
-759.5662127229994,491.20953638602384,1325.4271336287113
-959.0145462517781,658.0565228696855,1204.1318900949868
-777.3357874503527,339.0036352882993,733.0546109017862
-337.13653490233673,-18.58402206665885,505.37747344913913
-141.98528549504675,158.19775356518284,543.0253960322843
-235.60950987340226,588.4160238205708,975.8041736984597
-546.1742796979601,859.5595845676148,738.6854838298502
-528.029449404231,532.736459443337,551.6776880994021
-122.45466086788049,220.90112321740864,649.070783600924
-107.07632065996034,221.76992143086582,759.1878980079845
-681.5324295248633,389.45103577674337,1264.1421892287378
-1120.8006811704304,339.6552339483922,935.9118557305503
-908.667077952206,76.33085712246283,665.2546996170967
-182.44660510979796,110.67184002692053,385.59446905926086
405.2505187806234,243.80292964467992,645.1244818566994
527.1749272177553,503.2432074153764,775.5879938613085
173.9533887719048,715.8458800915706,875.5446559222569
-637.654040880423,737.9410909943763,902.5589778364682
-1085.2737683102794,246.9140838104756,979.9279060637425
-1282.0891945771493,46.54464062651365,899.1633228472518
-1013.5000229436149,22.869481423319893,652.0901633075516
-282.36451795465325,226.49834551044447,701.6014643124819
109.4767326253104,405.6655432793054,746.1130967251814
70.08315785716836,657.7679431814126,779.9941876175861
-260.8790973472083,817.9011181188276,1088.4654800569003
-204.28178837829435,537.1028842673085,890.1051837273687
-11.324866289711576,-4.980273589859943,1012.5629037438882
-354.10461268628944,222.6999026171017,1077.299587524792
-822.3613568343931,479.6908220442251,849.6438641126175
-830.3671488224828,437.19414886837,849.6673175855161
-628.2124884644604,205.2505187806234,618.0000305914864
-375.66243314485587,226.13532653862435,1010.2501873728543
-454.89540260945387,654.8586928257866,858.4817445304973
-500.0433379390516,520.3244736989697,917.1286830874968
-379.91057088812187,293.58751459468834,762.7079583751843
-275.28666772037343,330.5522273151382,662.1109145324856
13.720893475345814,424.8678192858928,646.4980395955806
176.1529166432982,648.7526321424749,730.5930159636574
-14.600908567145765,568.6253715590952,688.7601780424509
-398.98742180051295,320.8180163460509,762.3306633763824
-934.9013169634892,426.28828397057106,836.364099871006
-1155.0325544400994,295.5637246154395,735.3928201781445
-860.10921160641,173.10192573406823,712.7510413851826
-420.8705317310193,239.21012782142733,703.4084014418788
-152.8952292576976,462.6676795847716,832.2566829651308
-20.233718956014542,495.82885083081385,763.4890609943253
-53.23265335257199,394.1162374511174,610.2777197106046
-208.21279437932424,332.43258401186955,929.9832256682967
-627.3620451428368,493.23775193363696,805.4238705368297
-762.6396373889147,378.31981359587627,815.5588299776173
-715.7265732946522,479.53684489606553,925.8095272085781
-665.8685687773093,439.47525403680163,816.8018640412374
-459.49024386513236,593.0363579815738,1294.254408997976
-385.76272223440225,305.6986840562272,813.5999551324868
-90.60229538119542,-143.09473673476674,642.926993417732
113.5188876935549,509.9539598129841,730.1229267894745
253.99397347718133,770.0621517031811,951.1280610606069
49.20875120453978,679.8121682735696,1062.1771960863293
-665.8991602636987,724.375806213131,1090.566095455635
-863.3702640555135,166.55330821432398,842.236645541546
-634.8018946327238,-133.2605935768076,830.9728602529917
-697.0474117053225,312.18203973834085,832.4626656401524
-597.0193695094656,726.5845115304411,966.0006220268899
-493.67724962143035,755.5036633304952,830.0887662963398
-441.14554919365946,554.7857831165587,497.96005771593775
-47.90157699112338,43.89664156465256,391.7596732829254
303.51649136045444,230.73526637536776,824.1774714097069
197.81474815558832,530.4818668964429,935.3968990429964
-160.47987844982742,718.6399025151302,894.0739192282789
-571.6284358063152,772.3218428311401,911.2816303222813
-657.9800441537121,490.66296849586763,922.711629353551
-639.872943359863,299.9933718446157,817.6614848087779
-380.93334624973875,45.17312232005833,673.2645704700383
-65.27794914675246,112.16470456272022,654.2193307602495
-73.87262724783693,437.3980921109656,672.6160309585844
-61.19429162863975,441.4514640575528,704.1895040610199
-65.89273605155685,533.0821432395365,994.2314653831841
-418.3039060229538,673.507262928727,1243.5847103751028
