acc_x[mg],acc_y[mg],acc_z[mg]
331.66473770349717,184.47787980605,867.9263560950989
349.59644730871406,129.9281609927957,840.9059158836097
427.18461452177866,125.60048538491739,857.7811994921815
490.47432099646676,202.772608383087,889.8655504173189
452.2930868339342,272.673135066511,885.1340671891013
413.24101502551844,238.0833414060867,876.8162420398404
355.3578439120393,207.6142209623062,879.9763425838589
343.497524638893,203.7668316907405,871.9623928660656
354.45845421219275,176.4935018584328,860.4446982404797
388.7851610896688,164.55160528824828,853.1496484528358
469.4355360903061,125.23950584552321,854.4905752729017
481.97600607750866,206.49559227666944,866.1785625060547
450.82163633860705,218.23762446911027,853.8981201531615
378.1240280829846,215.07038591160082,868.518811214839
335.4907129345903,180.57950472383538,867.9967165137944
313.1334349650493,173.22633111205153,891.2340095751352
339.07195627456883,161.17226575843944,864.1911356069606
372.85311497810164,168.40205370845294,837.2002671656478
410.4612686289406,133.11477415835174,818.259038509583
504.1986815069366,155.88707662657484,850.9837712164706
498.0171618238645,237.4286835973549,878.0878281574239
487.11129692606556,233.82092763583898,897.5603289604505
478.06743383316433,237.40726955688237,858.1666522206871
454.7567212044889,191.1947505009356,861.8977938439733
454.78527325845226,156.44486139507376,869.8648366159698
454.1306154497204,160.14235238333174,850.2189840567371
479.3879663289708,109.29828228803925,811.5227932066507
512.6949569934688,210.09213135984257,862.7023499360129
474.07830400799463,237.40217097581748,854.1816012603692
447.1588157015903,206.72910728944137,861.7315801012579
409.9595682521555,242.11937817705333,892.4515507334311
422.4847424961634,160.17498330214704,826.1975292276161
461.29208241346436,140.63722066148992,838.6186924179002
466.23464689776836,218.11831767219184,854.1295957335076
451.3121198370494,229.94600602652284,865.6401523456022
394.3558707611672,215.15706178970396,892.3087904636141
374.81606868808416,195.92827316157914,888.1565060443679
359.7293673170757,184.54314164368057,899.7435413724362
369.2718716381231,187.8092926738489,841.0058480724816
415.7321817338235,160.47376015254954,853.5677321001566
520.9587371834419,70.14739997858597,796.5788521054592
607.9680624882096,174.32456547342878,840.7019726410141
562.5702966864322,255.99363697083106,847.5952542407449
492.88187097530766,229.41371416334835,842.7169318778584
465.8542927503276,163.9560910198692,854.3070263545657
514.9689241484095,101.53293938296973,839.5547919014139
542.0780796704278,159.28681048064325,831.9160977499963
512.0943441440248,221.52722897217706,843.0310044714557
484.95663656804317,217.83279713255806,838.7125063094941
450.05888861129955,167.8412097913151,842.283552487343
446.3685356365324,171.77425522477097,846.1390994886125
415.8953363279,164.37723381582907,857.4814029255659
418.9585638316857,168.01048268266945,833.967766770508
499.85469043965077,105.58957442143853,847.1639142826552
457.5476844794094,175.4503321725564,834.5204529579419
511.3315964167173,209.750526428495,823.4361377228719
469.02561017268897,183.0645531348626,830.7424043888587
423.60235146558716,202.93678269337644,849.6173514910801
430.6547087945425,187.26578393233166,834.0778961215095
480.0966690969904,113.3383979238578,831.143152860559
503.1340977805877,178.79194220248507,815.5690271397472
556.1838140445515,147.2541591675037,796.8470374694723
529.0726190901073,166.737876848873,788.5261531715724
525.6820626819556,174.60702686442366,800.2222981344293
570.6158576068282,143.02641574849721,769.6053188397669
541.5049991587341,193.90005761396606,808.2433858657137
541.1501379166178,201.5356926167448,796.4381312680682
584.3575532929187,143.4852880443373,832.6033864775435
545.8224776044827,182.40173759642695,824.0449083020196
496.7078462064008,225.51533908113373,842.787292296554
458.6102287733324,210.4745249397093,857.9657681267304
435.95315423717585,199.1842270296177,873.3624632264841
439.179536335038,206.71992984352457,853.7624978968355
442.7332473372661,183.44388756609038,849.9701733007705
500.45326385666874,171.39186164490422,850.8756812978949
560.827601678453,143.56074704409764,820.4769212728098
561.0448012318172,193.8195000331408,816.3858198263424
577.3582212070381,205.5125858473587,840.1380695752373
557.8999964309933,197.88918743913572,835.9480556561111
542.4594535340815,194.1396909240159,835.7288166703208
527.2636425282844,186.5897120831273,843.3766882676551
532.7894846864118,147.3642885185053,788.6464796847039
576.5689608581932,151.24736785752526,828.5357385039744
553.9649115651115,205.6227151983603,831.9385315066819
557.0546516904346,193.81542116828888,812.4007688660247
530.6807115579735,182.5883456634019,831.6672869940297
537.3792273610255,174.55196218892286,804.3225770268135
529.317350981222,182.2467407320543,792.4020944971015
518.60217301525,205.71958823859322,811.784860273386
506.6062314857776,182.5281824068362,803.8341329607971
506.71534112056617,178.6930297298262,807.7732966915308
475.04193582925876,194.16722326176628,779.7749486317958
492.06405857249933,209.89940499558975,823.147558034599
457.98310330235097,218.04081924000556,838.307678972942
468.91650053790033,206.2090520208226,822.8130911167423
509.3961750444852,166.78376407845698,776.4567920747656
563.6991225341988,158.73208486078326,789.0717013455156
571.9781984673666,181.9877328139579,800.8912319701427
575.1230032681906,177.91804540796298,781.3289961403742
557.3819805948006,201.62134877863494,820.2291302330561
534.3435321949902,194.0968628430708,823.8338270459333
526.036923924072,186.28175778680796,808.0374031906922
526.636517057303,194.15600638342352,823.7185991138667
541.2327349298691,155.21304420979644,808.3698306761229
537.8697108594679,205.57070967149846,812.0744596778717
534.6708610993561,201.90279045341683,831.6621884129648
487.99233173407845,198.28789647841006,819.2012562903745
460.9362014551351,206.19987457490586,814.8440089123199
464.1360709314598,171.24910137508735,803.236579259992
488.429789989446,182.95034491900907,834.9579112133096
499.3621675087824,190.42690419256323,815.4731738157273
515.86627441583,209.89124726588594,843.1268577954756
525.8727496137825,182.37930383974143,804.1237323652829
549.5118108630369,178.46869216297108,820.1893613007501
529.9995411277042,182.41805305583458,812.0346907455656
553.2837411348422,166.8327104566799,820.28521462477
533.7704516832965,190.0914175584935,808.1403945282029
575.7225964014216,166.48294779562852,800.9993218887186
595.9170562832364,182.01424543549533,824.7974588671973
587.1464771354132,185.6689083428082,793.256616683577
579.5495913487277,162.58457271341388,801.0696823074139
545.6032386186924,209.37934972697101,812.1774510153825
510.75851590502367,205.74508114391764,807.7427052051414
510.1589227717927,178.56046662213907,796.0516588233496
510.3496097036195,186.33274359745684,799.9530930542031
517.7578479909042,163.0261098336333,796.217872566065
538.0879301290452,197.90142403369146,819.9527871393393
477.38626340289505,237.23595723310208,838.534055972223
495.18133103557284,182.6515680686065,807.5877083407689
503.40738172566586,178.86026318875457,823.4218616958902
532.3805784850076,166.5706433899446,772.8775881672132
565.1440604079885,189.98944593719568,824.309014801181
538.141975088333,205.639030657768,819.9272942340148
542.159656967466,190.2025666257081,827.8882187087335
541.9689700356391,182.4313093666033,823.9878041940929
552.2477094624567,174.2960134194654,788.8473637786605
567.989068642197,162.67430774015594,800.8963305512077
529.0991317116448,189.9160263698613,784.5227473194211
540.7422514314268,162.81400886133392,792.6386686585124
555.6647784921457,150.98632050700292,781.1281120464175
568.3153778303499,189.78958155945202,804.7345423768567
544.4856296492686,185.9279162609046,784.7674792105358
513.6300367607696,201.60707275165325,780.32763481923
499.68949641314833,198.23283180290926,823.3005154665457
506.1422606088726,174.68758444524892,792.0798641738005
502.56203698510706,174.7854772016948,799.8755946220168
517.675250977653,190.03941203163163,788.2763226993928
510.4046743791203,194.07035022153337,799.9276001488787
506.6867890666028,213.44291883568806,799.8062539195342
514.0124303406363,178.53089485196273,796.1097826474893
585.8932459096634,123.56411210760048,769.8989971091047
613.1115110664703,177.4836463012344,766.2004864046337
599.2515282996742,205.0261812137682,805.1465077268997
575.559441807345,181.88984005751203,793.0955015219265
564.9533734761617,182.2181886780909,820.4075805703275
540.823828728465,174.4204187974487,792.5999194424193
556.0747044097628,151.0882921283007,792.9078737387385
571.0237440920192,181.7480995039081,773.4047814493227
576.3221895346526,212.97588881014414,808.7002187291279
584.2198916041666,182.06931011099613,820.697179974813
549.4027012282482,201.6121713327181,812.2600480286337
556.0461523557994,185.83818123416253,784.940830966742
544.7313812565964,201.43678014408593,788.6434205360649
543.5046626523839,181.81947963881655,757.2942850004845
602.915368652904,158.605640050374,809.2824766867382
587.5013383775296,197.3436392651925,801.0717217398399
575.5319094695947,197.3303829544238,789.1186082913126
567.7157846971188,162.60496703767345,793.0434959950646
556.7823874615694,193.74710018201935,804.5479343098816
568.3153778303499,189.78958155945202,804.7345423768567
579.6311686457659,174.19098264952865,801.0319528075337
609.477242483417,150.53560594086667,778.010839583344
644.2944328593353,150.30107121188175,782.4578219881407
625.7631301208875,177.6682149357834,797.786196101625
583.7028954841868,166.4921252415453,808.968404093141
575.6950640636712,181.9234906925403,797.0224286581046
552.0294901928794,162.65595284832233,784.9591858585757
598.5713775856179,146.9268302631378,797.4823206701576
574.8507390393254,158.54037821274343,777.4652914094008
579.7392585643416,189.66517618146872,800.9809669968848
541.559044118022,220.94701044699264,804.2287631352197
526.1460335588606,182.44762482601092,811.9765669214258
529.6722122233383,174.61212544548854,804.2063293785341
528.9084447798178,162.83440318559346,784.6114626299502
560.6634273681635,178.27698551493123,808.5829513646354
555.5556688573571,174.12979967674997,773.1987987743012
593.3820417777733,150.4836004140048,758.1467677545339
594.5261633687345,177.80383719210946,785.544502964825
559.8996599246431,185.8086094639862,784.9989547908818
544.5131619870191,189.79671957294286,784.7542228997671
545.0311778232118,186.06455823344365,800.4731483228219
540.2782805545218,174.28275710869667,776.8942503301332
575.4778645103069,170.28343012139723,793.1332310218068
547.4948121937665,162.51523201093138,765.2684657859718
583.4020792013583,181.86434715218758,797.137656590171
551.8377835448395,193.50338800711765,773.0774525449568
548.5033115284017,170.49145222884474,792.7284036852544
528.391448659838,147.25721831614263,772.882686748278
552.4383963942836,162.7589441858331,796.7379278346837
567.2253011986764,150.89658548026085,781.3014638026239
571.5692922659624,162.57539526749707,793.1006001029914
545.2493970927892,197.70563852079968,804.3623459591197
518.7663473255394,190.3126959767097,819.6886806401778
525.437330790841,159.09816298124233,796.3463568089002
571.1338734430209,139.29527412521097,785.3232245466088
591.1090943390456,162.49483768667181,801.2430340636203
579.9034328746311,193.56864984474822,804.8946378222942
556.7283425022817,186.00949355794285,804.5734272152062
568.0706459392352,154.9703517511077,804.8477308764972
560.3911631392984,158.89931831971165,804.719246633662
567.3894755089659,154.80005914354038,785.2151346280331
571.0788087675201,150.8670137100845,781.3595876267635
610.5132741558025,162.3806294708183,805.458540888071
587.9642895382216,205.18321751056686,812.8259905268364
571.1868986860957,185.6515731671876,777.3184522747321
536.6970372145433,174.38166958135554,784.6899807783494
570.9972314704818,139.26060377396973,781.3973171266438
545.0587101609623,189.93336154548192,800.4609117282662
603.2416778410569,185.72091386967008,813.1206885123871
568.0155812637344,185.85245726114425,796.8939444152694
560.3085661260471,185.91160080149697,796.7776967669898
526.0909688833598,194.01936441088446,808.0119102853677
523.500889702396,154.75111276531743,741.3867120780288
576.2416319538273,162.75078645612928,816.7182473117733
560.9356915970286,216.96399891910082,808.456506554226
575.9958803464997,166.55126878189802,808.8521564448615
583.5122085523599,158.71984826622753,805.0669698622875
541.3418445646577,189.99760366689952,804.3297150403044
521.5838232219974,178.43708096036875,792.2991031595908
525.9278142892833,190.11691046381793,804.0982394599583
532.598797754585,158.90237746835058,780.7559156286807
559.1909571566234,162.46016733543058,769.3677249621431
613.2491727552223,158.2089704435256,774.1165433659813
606.1142184130157,181.58290547740566,785.7045984102625
573.2875140848303,193.90209704639202,836.1917678310128
537.814646183967,197.83310304742193,812.0989328669832
525.5189080878791,151.39522670840708,800.2977571341896
560.0097892756446,143.3557840852891,796.9173978881678
564.1896060326411,170.44148613440882,800.8127138217435
553.2562087970919,182.2732533535917,816.3083213941561
518.548128055962,178.67263540556667,815.8005027200932
541.3143122269073,166.8194541459112,808.3321011762428
522.5647902188821,201.85486379140687,815.7821478282596
509.5593296385616,189.9955642344736,776.3813330750053
541.0685606195797,170.61993647167995,800.4660103093311
525.5178883716662,209.32326533525725,788.3283282262547
552.9564122304763,178.33612905528395,808.4677234325687
544.1858330826532,181.99079196259683,776.9268812489485
533.4706551166811,186.1542932601857,800.2997965666156
525.1915791835132,182.20799151596114,784.4911361168188
537.3792273610255,174.55196218892286,804.3225770268135
525.9818592485713,178.54415116273142,808.0628960960165
587.3922287427409,162.55907980808942,805.1118373756585
564.570979896295,205.29334686156847,804.6254327420679
548.5033115284017,170.49145222884474,792.7284036852544
545.3319941060404,170.6923363228014,812.3038958257918
518.9845665951167,182.6434103389027,827.5670081016455
526.500894800977,155.50366333049513,827.7709513442411
518.0025798820188,178.5359934330276,800.0938138915941
523.0012287580367,186.51731223200585,831.5388027511945
514.994417053734,182.6393314740508,823.5829768575406
514.9668847159836,178.77052816201254,823.5952134520965
500.2890895463793,206.10708039952485,838.9817113897204
457.90152600531275,187.12506309494069,842.3355580142048
491.9009039784229,167.37723891441016,827.2131665757421
507.25986957829645,198.1390179113153,819.4898359786473
563.4819229808345,127.78267808069016,789.1726532506004
599.1974833403865,177.97922838074166,809.1611304573938
595.3439757715429,197.31814635986808,805.1138768080845
545.3574870113648,213.17983205273975,804.3113601484707
511.16844182264083,186.53770655626542,823.5126164388453
537.2711374424499,139.76842244803274,808.3626926626322
560.5543177333749,182.11111847572823,804.6437876339015
583.3755665798209,177.9955438401493,797.1498931847268
569.188254908659,197.7321511423371,828.2685728561743
522.61883517817,209.5924704154834,815.756654922935
476.5959833378371,182.9707392432686,826.9307051847472
490.4019211453453,167.0009636318213,784.021046942636
506.52465418873936,170.9217724707214,803.8718624606772
518.3839537456727,194.07850795123719,807.8966823533012
526.3917851661884,178.6471425002422,819.8426577883376
561.2365078798571,182.28243079950852,824.2763838823656
542.2137019267539,197.9401732497846,827.863745519622
504.3597966685872,237.02793512565458,838.9378635925622
473.53377555026435,198.6468365853783,846.4552115146356
468.8899879163629,163.72155629088428,830.8056267940633
523.0562934335376,174.94455293091934,835.5034593872526
557.3554679732631,178.44319925764663,824.2315163689947
595.7814340269103,162.67124859151699,824.860681272402
558.145748038321,194.08870511336696,843.8131268068097
508.02363702181685,209.9167401712104,839.084702727231
492.9644679885588,202.40041196535006,850.6584817445306
514.8587947974079,163.2953149138595,823.6461992627452
500.31662188412975,209.97588371156309,838.9694747951646
480.9675067428735,217.8287182677061,834.7284750653895
477.3587310651446,214.05780771211374,842.5364421081615
467.4613655019808,237.73561817746122,885.4787312690878
435.3525413877319,229.92867085090222,849.7030076529702
434.34404205309664,202.64208470782583,826.2321995788573
457.4110425068704,175.41668153752812,830.5935258217638
484.90259160875536,210.09519050848152,838.7379992148187
474.26899093982155,225.8651017421852,862.0731850326056
485.2299205131212,179.28242570092746,854.5456399484024
527.2921945822478,151.83982297726544,851.3427113234388
474.07932372420765,179.47413234896732,866.1510301683043
462.16393977556055,187.19848266227513,854.1724238144525
454.5119893133741,175.6858866177543,858.0218525184442
453.61157989731464,183.183859931781,830.5109288085126
500.23606430330443,140.44143514859815,850.9766332029798
458.7193384081211,225.94973818786232,857.9147823160816
442.6781826617653,195.01562715096392,846.0055166647123
423.9561929914905,195.3021674068107,861.4226060887256
403.790285163639,164.32930715381912,841.6013623408606
424.2029643150312,172.19233887209194,873.2778267808069
400.50781867406306,206.98403634268584,849.2584113841118
397.5271881835286,234.26552390469735,868.7441684979071
435.298496428444,183.5723718089256,857.7077799248469
432.91745907114057,218.72810796755266,892.8747329618168
417.8032253623817,222.78453906277883,900.4838553430582
363.964248749573,219.36645031687684,903.6133644006875
359.483615709748,207.65297017839936,887.8873009641418
368.0900205472817,219.40519953297,911.5243227809701
374.27052051414097,176.48126526387708,876.4399667572515
383.8038473892716,223.22301703435937,919.5963963229034
353.27660312135134,227.39875492650398,926.9740431237988
342.92546384341244,180.45204019721314,860.2591098897178
438.36376336465565,90.6586856877731,854.1418323280632
415.06732676296195,246.2655442990216,927.8357033237651
417.17609989140027,230.3508333630751,880.8257661892696
428.73764231414407,191.64240591843293,888.9783973120282
387.98366414626815,269.61806529242915,919.5025824313094
352.70352260965774,223.3922899257137,911.2806106060684
306.13512259538174,215.94428270612292,902.7588422142119
259.4841255678545,235.5075382521045,886.2955239556832
228.30222349120243,204.76207471460697,882.007617280111
243.52658655096292,158.25281824068364,886.3169379961558
236.96369300423694,224.2508909770411,905.6191461916151
277.5524771456104,180.99147007387847,863.2020108803722
377.44387736892827,99.04330224898412,872.8240530660319
326.1113632076194,219.8345000586337,922.6677815563929
347.2235676811144,294.5215746457761,1071.8645001096197
291.3115080073216,306.031111541658,1012.1223863398817
282.5419485757114,232.44838961317066,996.541122605579
207.20021617983718,182.27529278601767,944.5610886490291
239.1560828621395,123.39483921624614,878.5201878317265
310.0997792314399,134.84217342313636,922.71468850219
343.29766026114936,220.16080924678664,973.9442113259881
302.92709538935316,236.44159830319228,1028.2308433562941
359.28375133200433,243.35629394339557,985.8799895988947
315.641936848975,220.19751903045386,953.9067877409718
228.5122850310759,201.94867768300085,999.7593469737374
240.91815247816535,186.62438243436853,1027.4660561965607
230.15810699882226,139.57467636756692,948.9734007025846
276.0647111908756,21.28402665538181,742.0556459137423
276.37368520340794,96.73048390632887,957.6603631209435
258.38589120647725,201.47145049532716,972.7358476136093
220.91437952817734,217.48303447150658,999.5931332310219
158.74126230670007,202.38205707351648,986.9384550279658
170.00096873040235,217.66556367362966,975.282078997415
131.1671161915639,214.02517679329844,966.8633019430694
136.1657650675817,222.0064955922767,998.3082908026698
104.8196886806402,206.66690460044973,986.1165637603057
96.56804311360149,187.2810796755263,974.2837768249098
105.20208226050691,164.28240020802212,1005.8878414137347
68.87683357721548,168.9955285444061,1068.1221416079907
65.89579520019579,176.96868961368054,1091.5960088307427
68.57611926600828,203.6781163802114,1052.3063431447029
30.069085773429258,188.5343109012762,1055.7019981339195
35.376504718736776,176.2875191834113,989.103312548118
15.919605573768823,110.73608214833813,996.8817078207137
23.74460187729755,82.67665308744577,895.0538665089507
-57.92691693901588,177.6682149357834,630.5608949029486
-150.48971871128268,89.53883334268075,645.1693493700704
-76.86518841806325,89.07608612523136,658.0483651399816
-50.6814253593225,73.22184436071441,638.8705623225057
-44.70038188372177,46.692499477395444,705.7680247587098
38.97732661000444,12.001549968643728,793.4799345342193
-69.38577393911275,140.16101319002922,752.1783687599742
-276.84683352622966,230.74852268613648,748.7653785951371
-428.63872984148514,159.1511882243172,829.1506273804001
-343.2803250855287,99.71733466576254,748.212692407703
-343.5709442062274,52.305221456868566,638.4789912967221
-247.10069187745054,167.45167819795753,619.91199849082
-64.43025905890391,401.0237950778299,508.04607077850244
-28.246852900837702,285.27580774270524,575.6971034960972
3.643629577888474,320.06138691602126,599.6053698255776
73.63207619319543,369.8877802307618,608.3351603248816
103.83158367026458,396.5258268623843,585.1498727904025
127.33400294697988,431.1992372522728,589.3092952231394
173.38336740885015,480.99911794547586,574.132858825389
235.50243967103955,469.05416222665235,590.8021597589392
236.40386880331206,403.62713056956255,630.2825123768056
226.15266171424494,377.01151769462564,673.3889758480216
208.22197182524107,354.3248713882927,716.3679747926153
216.74781908194953,354.47069080674856,740.0427261093239
244.1312782652588,335.0552941116488,756.2174646795797
266.2703369652226,311.4590609433395,733.0811235233235
285.2931429183258,257.18262607516334,737.4730412526195
272.2071247571801,214.40757037316516,702.1001055406282
241.8165224617989,179.99826648243797,721.3839588442538
200.0285520539634,168.8904977744694,740.4190013919127
176.96257131640266,138.18786231791694,748.0260843407281
184.56149653551418,122.65350552941118,748.1922980834435
177.18079058597993,149.82792288905998,751.9142622608128
115.22487291786696,165.67635227116295,739.159651868885
155.51284077641196,195.7171919054927,672.9433598629502
181.99589054366172,183.80078824063264,661.6061550070616
148.24226417787932,199.7481300953945,684.594637312436
85.84134235442278,235.79101935931234,765.954734797306
16.559885383897665,286.5514727251406,756.8965956774231
-57.85625060545651,309.9876104480124,716.4566901031444
-35.963045484441686,328.81055202337194,677.4749787134242
-227.9014750195021,396.1352755528137,682.2217576848365
-302.37236976949316,450.451479353296,633.8280656493298
-283.9246837605095,527.3360423794059,594.5985632198559
-384.33308010380716,555.0876191156002,581.2270245190764
-414.7532541693647,594.0468967486349,584.5645556841531
-511.9352684148002,629.3362157311622,551.5930516537248
-580.8354534932929,676.3308571224628,554.3269108207187
-632.2220126138897,750.7660618049997,612.1754115829565
-703.8570765755891,801.9323622235933,646.25126827204
-767.3211545226964,841.5707708544713,696.1867712215691
-829.5024294738774,812.015316137519,797.3956447920544
-908.56918519576,766.7633697541975,859.1578163797016
-949.5668755385377,751.9917606929993,901.7646189065583
-997.9146803444602,691.0259874676879,964.0397077493335
-1027.3742817373927,614.368821157072,1018.8015275348872
-1061.8712812224358,545.1708789443899,1038.1424849464395
-1077.6360938750747,475.6863964758608,1042.0683923664046
-1066.7557218826003,398.18898400575125,1038.5605685937603
-1057.568078803669,312.543019277735,987.9704078354995
-957.0179419067674,284.825093176569,1005.2688736724572
-1040.9161130457396,269.25708575303497,921.648065343415
-1044.7094573580175,257.7149179383378,925.5545981553335
-1030.7393452402198,264.95694248290704,882.5684611972489
-1000.5975537008052,264.54803628150285,863.3977963932639
-971.4877149689243,252.29308683393413,816.780450000765
-944.7324009728093,279.06267685703074,805.316800334467
-917.6222257345781,298.1986713097745,805.6584052658146
-895.0742608332102,313.32412189687614,786.3215267191141
-867.964085594979,351.768442842357,782.6740018252922
-830.3029067010652,382.1468085431825,751.7378513559677
-799.5584628797806,428.230843356294,740.2691031086049
-807.7569812321232,455.20029775713425,720.4325636175454
-796.8500966181113,439.49972722591303,704.9502123559014
-790.0159585587332,431.4980141026753,681.5324295248633
-795.0421397725014,438.95723820060886,646.1095277184361
-784.5451810761066,423.1536763318769,618.8484344806841
-781.2637343027436,419.1176395609103,603.2121060708805
-804.2491574594791,438.6401064583727,602.8021801532634
-821.162170567931,419.0737917637522,563.3687344811939
-825.5347136891803,442.14487108237785,543.6025554088297
-845.0194510867626,449.9620155710667,535.4346285428766
-849.7183033961651,445.91782107039614,511.8302376448635
-850.0731646382814,453.5534560731749,500.026002763431
-865.650349507732,449.7692892068138,495.8808563576758
-897.2146451642509,461.40833006174387,471.82065231246145
-900.3869823028252,461.6092141557005,491.39512473678576
-916.5097153462193,476.9977515257504,467.55415967736184
-908.2846843723393,473.20644664589855,483.38933274869606
-933.6134153864981,430.3498136468622,428.20942931582147
-926.6966803138688,414.6441445345761,408.7430468100728
-913.1650461676517,398.6060479368592,357.97953429560556
-916.9910213987449,402.50442301907384,357.9091738769101
-930.5695624907588,405.94902438651326,298.824777064543
-919.2537716753428,371.04209898385284,299.11233703660275
-904.411802195449,347.60800069340706,287.6395099243881
-881.8097923347934,351.16069197942215,272.2672880137458
-885.6347478496735,335.7497208526867,276.187077136433
-882.6000723998512,354.82453233265187,248.69552803454803
-886.0997384427915,385.8381812341626,252.46337944150147
-894.2707244573836,397.36709273809106,236.60373318105573
-870.5786379650543,459.1221263122473,240.67444030326362
-863.9086742159658,505.1449781525802,201.37355773888132
-867.9263560950989,539.8907883935901,189.421464006567
-882.468529008377,586.5713571912937,204.74473953898632
-925.3486154803119,613.8089969561471,184.38814477930794
-952.3507007999675,648.7679278856695,176.01627467075915
-967.3548051577249,648.9892063038858,187.5645607827342
-974.9527106606232,645.2142168834414,191.38849658140143
-1007.0615347748723,598.7875574227693,163.59103261562308
-1004.4887907695289,571.403078523247,132.32551380950684
-1028.241040518424,540.5301504591273,120.30000050985812
-1059.4953424461974,498.17725726930195,116.04982333416612
-1113.8258222736613,483.05078696598747,107.4383199155675
-1190.2943410848764,491.5205498309821,121.96213793701214
-1282.6194470078979,476.8274589181831,128.4781245379411
-1313.1701447487167,457.8250472893394,139.85815747477477
-1324.376825929344,450.27914731330276,151.49006031621403
-1336.1239567028497,423.28725915577706,151.40542387053685
-1321.9397041803268,442.17036398770233,112.30746483253711
-1318.7174009473165,430.39774030887213,96.6971391861645
-1311.3142612410968,426.40045275399865,88.9723809863715
-1268.292434215558,457.1255219672366,101.28688186077815
-1233.2855766240257,464.6642839297824,109.63478863832198
-1166.3004185935056,460.66597665869597,153.82317101150753
-1104.1079267639818,479.63575736872434,166.4645929037949
-1045.7801593816441,475.45696032794075,183.0502771078809
-971.6141597793336,494.4410170649509,207.64481244869557
-890.2550820106766,478.47837946699434,224.6159493812872
-828.1084774107367,470.4012073439962,241.27301372028168
-754.6195693738433,450.5952593393259,254.21423217918453
-685.7754686870644,434.4817037418487,243.52556683474992
-631.4174565218501,395.5489387303514,264.0942625667277
-593.3453319941061,348.7929109328874,260.8984719552549
-551.5298292485202,344.4591170277312,245.8403226382098
-513.2129728296616,313.21195311344854,246.51945363605313
-478.912778573723,297.4012532312258,239.23766015917772
-482.60313154849007,282.0239327395186,247.0833567018299
-471.4504953271505,262.5228798825287,239.46709630709776
-462.6534035577899,262.73702028725404,270.99570189616236
-446.85799941876184,278.16124772475825,279.02902622200247
-439.88721938684466,250.88383902759864,263.52730035231195
-435.05172510490337,254.96270387951034,291.0575986702901
-435.10577006419123,247.22509725543387,291.08309157561456
-443.43991067285975,254.85053509608278,271.30977448975955
-440.2145482912106,281.6966038351527,247.71965961872814
-443.6866819964004,297.26970983975167,255.46440425629552
-455.87433017391265,285.6163929578399,239.62311288768336
-467.5714948529824,324.2901500512408,227.54355462874685
-508.1878113321064,344.37142143341515,273.9620563597151
-547.0767285464456,371.6131400631205,257.5894928441415
-580.0951395226709,414.7797667909021,296.1959486674859
-672.170414973513,434.9059056864475,302.5977270525613
-721.0117624265168,478.0878281574238,329.1929456032386
-778.2412954474771,521.1586015611856,336.03932025717245
-793.628813101314,544.4560578790923,331.8054585408881
-821.3936461482771,548.3269006235565,307.8288712251381
-833.8545782708674,555.9146089643253,280.1445957590003
-869.3529390770549,555.976811653317,256.0650171057395
-908.6793145467617,559.9384091407361,231.9150780337832
-966.4543957416652,583.5631943630088,227.04491340060065
-1012.3966900011727,626.475911753759,226.21180525459766
-1084.2744464215612,642.8240020802211,260.4018701595346
-1141.9190039412033,685.7917841464721,255.46848312114741
-1244.2985117241874,690.8750694681671,301.0130880575936
-1298.047753310254,679.7530247332169,308.09501715672536
-1325.9777803837194,660.4130870378774,284.19388884073567
-1352.602570704573,633.6771476498092,299.58446564321156
-1377.6264065710513,594.7576389490805,252.24516017192417
-1355.1926498855369,575.0985300790791,236.94941697725525
-1298.781948983598,551.1321399254588,202.55336939729676
-1238.6186924179,492.3516185445591,172.25556127729655
-1146.7626559528485,441.27607286892066,165.95473479730592
-1077.9216144147085,405.85317106249335,159.25621899425394
-1001.5856587111808,378.04041135352037,144.79460366180095
-913.8829263815882,323.0573131497505,130.59607511229626
-822.5163536987657,260.27236620048643,112.55321643986478
-761.1324968261333,221.10914532485614,113.60454385544504
-710.2201057445714,220.92763583894606,137.91559808905183
-678.1377942518599,205.55643364451677,177.69370784110785
-654.2529813952777,178.5359934330276,205.61557718486947
-660.4854868889988,136.4839165260308,256.6839848470171
-698.9920105234714,82.72233637378719,268.06197835142484
-843.9773011170993,37.87307592297064,317.0624015336532
-1066.4702013429664,28.266431452126874,345.1586423498341
-1299.842453845095,-0.3894031091147334,396.7042771996554
-1447.9358394558797,-42.15669979044832,355.38027766872483
-1552.8442434470487,-107.22417951084213,342.25449057527294
-1650.6554225958919,-141.60697078003193,305.58447584037367
-1694.350262321996,-133.8836401829371,265.6574875212229
-1659.97562878251,-118.77960363630804,254.34781500308466
-1636.603733181056,-103.44919009039785,258.57045984102626
-1664.217648228498,-32.88962081852621,336.4115166749094
-1679.8295034491905,60.86094639861727,422.2022811051685
-1698.8676051454881,139.3034318549148,523.6936160666487
-1687.4263892358756,205.8327767382338,617.830757700132
-1642.885185053,298.730963172949,661.3553048186691
-1603.9932086900217,368.03699530420687,657.7791600597554
-1527.2493665013028,378.9448996344318,647.1190467692842
-1394.6760616520423,439.1193730784723,570.4088552155936
-1293.1633126500897,464.71221059179237,493.35094043327746
-1178.710364905447,475.11841454523216,459.7084631347097
-1057.5272901551498,481.3560186200181,398.70903927437
-916.801354183131,487.5140848301918,345.8510296584461
-775.5053968480572,478.3672303997798,312.6766021016352
-569.8184395282793,464.5725094706144,249.08607934411856
-357.86940494460396,477.38932255153395,138.40404215506825
-123.00122875803665,545.0403552691287,122.07022785558782
94.45335563112786,682.8193113856415,144.48562964926862
267.3838670697945,852.2808502393784,209.29879214614573
463.1897742858163,967.436382454763,278.56199619645855
642.2478624198886,1009.0000152957433,324.2748543080461
807.2104133419671,1019.1206987095493,303.16366955076404
830.3314587550286,980.323555954378,311.4896524297289
802.2127841821622,953.2113412837209,283.6881095990986
692.3811903147355,911.0787067958988,235.0894546047835
598.8885093278542,903.8152682108571,206.24066322342497
470.6347223567682,885.2146247699266,176.9105657895408
334.5637908969934,870.5072578301459,143.5250569766434
188.4313195637654,914.1939398265464,141.188887132711
24.367648483427065,973.8126679345139,173.851417150607
-104.22417441226108,1029.4952914603866,230.60678213253257
-275.20407070712224,1124.1351531868681,278.74656483100756
-420.6839236640443,1222.0483039570088,284.08579892216
-606.6138793573749,1286.025299159244,351.7286739100509
-857.9983990455457,1377.5448292740132,414.3729000219239
-1132.5274176196765,1465.383183859932,476.6826592159403
-1315.2401686610617,1614.1291878470224,508.76599042486475
-1573.6260598675392,1806.3049053448426,570.9656202678796
-1998.1543136545101,2116.502577332729,704.8462013021777
-2518.474708488628,2466.1938582492494,845.0082342084198
-2985.8310432206717,2753.4275211208724,970.4761564856502
-3336.8377580519345,2926.973023407586,1031.3511749680065
-3526.6069452871275,2908.8832577893572,1005.0221023489164
-3628.456200639362,2808.828702971963,976.3609387507458
-3646.2400513936973,2626.8501476039223,945.3115997817807
-3531.0121193271916,2431.7682388991147,865.2791728062082
-3316.7799401426587,2200.8636996323926,759.3775652235984
-3016.4327267721396,1864.367546511806,604.1023183248103
-2673.5837416447007,1504.4077233305973,457.3916678988238
-2301.1120005302528,1089.8318997822907,287.7618758699454
-2020.0986065577954,750.6069860757752,242.0959247041549
-1758.459820631918,492.60246873295165,176.24163195382727
-1563.8673757093402,312.9529451953522,160.14031295090578
-1392.4224888213612,206.85045351878574,127.743928864597
-1130.1412816813083,143.09881559961863,151.51147435668653
-1039.3457500777536,134.23646199262748,105.80575425858986
-993.3657263183658,71.02649732579424,0.742857142857143
-909.2880851259097,-15.76175350399984,-111.5192241999052
-780.0298776850403,-234.47762487699677,-226.58400167233464
-681.4610493899548,-568.7783289910419,-314.2459453534082
-592.8059021174408,-984.672645602729,-448.8760178042452
-513.1772827622073,-1330.3319686131351,-525.0100696976033
-515.4369738901664,-1496.9535978137285,-555.8789188968711
-508.5763232092509,-1481.7802205646171,-583.2990878638475
-505.4162226652323,-1322.6535055294114,-524.9193149546483
-528.903346198753,-1155.5016238980693,-459.1170277311824
-603.1111541657957,-1038.3362310269054,-401.7539118863221
-682.4787261705068,-1048.9106881554865,-355.8116176268145
-767.4180275629294,-1110.0834637720325,-349.02846537808534
-836.6975470726497,-1117.2520687492672,-346.11717559003336
-992.7284036852546,-1030.5761906461435,-309.5012058144219
-1141.103230970821,-913.0804097219744,-280.72277485175874
-1273.5541698745242,-780.1257310090604,-239.98409242707757
-1355.4985647494304,-628.1462069106168,-190.70426700249325
-1410.4102828182918,-526.5661566386076,-129.07567823874618
-1512.9325508710929,-386.3521182055034,-115.38598807951749
-1768.0859416824298,-167.3333911172521,-76.77616719267029
-1957.4982282430801,66.68842061254354,-33.307398550983265
-2106.9988222277743,300.7540801394972,50.005149566875545
-2255.1126021628183,500.41247520814966,180.54993295365904
-2499.2122692254748,693.1796281094972,321.4543192629492
-2953.7099825118676,997.1009468065038,592.2695313894144
-3466.5558575048567,1267.5684357043438,964.3629577888474
-3987.324927472685,1940.6729107289445,1358.5271219019749
-4182.396639015363,2903.305410104368,1532.8883971590708
-3836.111210250188,3329.159294968211,1434.5979513901284
-3094.3798340921726,2926.014490167387,1137.0243661189093
-2581.3300158565876,2257.8250472893396,852.6193960220871
-2344.21540485283,1851.896417227086,665.2332855766241
-2025.2889620818528,1693.7282354320794,564.5801573422118
-1590.176054004171,1721.1789958854454,555.3058383851775
-1163.9754656279158,1732.9363238210808,514.5549193659405
-797.2855154410528,1694.5134169160724,433.8362233790337
-521.7449383836479,1691.8825490865893,383.0278433511954
-262.21798473484836,1642.8953822151298,324.2860711863889
-64.72546690256102,1482.2798815089761,276.76627594540446
104.42913737106964,1340.8452427689376,185.586311329557
305.6099687456981,1234.233912702095,122.24052046315511
472.68129279621485,1189.8252716269064,62.09939173927896
652.4582808604366,1153.3296283644263,33.518479807069696
782.5495964473089,1155.9502990317797,7.985927916260906
902.1439533377861,1116.4464929410146,21.684469212218243
987.9846838624811,1034.9507731998185,70.34063620094528
1046.799875594622,1023.1730509399234,102.65789030912697
1035.4300398199182,1011.7267364492462,110.37612232515691
1007.717212299817,984.7175131160999,94.35342344225603
944.2898441363769,946.1304319008021,50.36266207114561
866.2132328572959,880.8196478919918,33.71497912131054
741.9210433736292,858.355299720088,8.381292286356707
623.007856913421,917.3418037760093,10.325748344235802
484.7180229742063,980.3133587922482,8.041828759056356
343.52913584149536,1101.4770589344987,21.216623413703967
173.83714112362532,1237.9252853930752,-13.18238134327217
-12.529864938587593,1336.5420403501707,34.71338326543723
-205.92251176497584,1454.706755110053,98.13646862078285
-421.2906548107662,1581.0495938980184,192.5999194424192
-689.2720755813658,1742.9091483840048,317.55186531588265
-970.0427770951345,1962.4846405245423,395.02276516445477
-1440.2165877236366,2280.9114223511597,543.8901153808895
-1988.426220982701,2571.652908995427,558.2456802271928
-2599.2668240428693,2886.7962046162556,650.0731646382812
-3229.8491329862904,3132.4560374847683,741.8384463603779
-3788.3680971585613,3176.4465949126366,843.2135336735787
-4083.6677152748393,3051.6537247683973,905.9301596365733
-4236.421203978933,2797.3059097653127,884.8760789872181
-4260.078620120021,2483.539231032004,822.7865784952049
-3957.7123686478058,2220.931714703798,710.46279820326
-3502.3275022561224,1914.3744295962433,577.0319120188852
-3081.8679161589334,1515.328883971591,455.16460768968
-2712.180000305915,1077.8808257661894,320.89143591338535
-2363.3248866840363,695.2588294677591,241.06601132904717
-2039.1265110919633,429.2801313394483,203.64854461003503
-1770.9411470787684,380.46529650798186,172.50845089811506
-1575.8898298603501,401.7488133052572,128.26296441700276
-1487.2255051419193,284.22040146227306,43.646199262745185
-1361.2191727042366,92.71810455150333,-59.78504382230426
-1151.820448369219,-258.1248438559549,-169.279009651614
-899.6772598185926,-795.571372487037,-340.2966354463553
-654.9637235957234,-1371.508109293184,-495.59737525046785
-463.7628547975099,-1904.4423936818387,-647.9205437126849
-365.74161410879356,-2123.018563933658,-775.2280340381272
-332.37140103909087,-2019.3440165601917,-833.9463527300353
-323.80680456628926,-1716.9675679258467,-760.270836626167
-367.03563398306255,-1417.4871133363588,-624.5670030030643
-454.36718961113127,-1284.1796128137541,-504.6616326676287
-560.545140287458,-1348.5644945011804,-443.2410660113291
-621.163190284144,-1394.1764007076833,-404.74881840383824
-709.1667388965652,-1323.8159820122062,-402.38001764109055
-872.305017513626,-1151.9734058011657,-366.1566386074756
-1043.9650645225436,-980.2715504275161,-353.60903060678214
-1200.7362351057702,-824.2692458688748,-352.5587229074149
-1308.2041267915142,-684.2989196106724,-370.33951451311106
-1395.3286800283483,-548.071971570312,-356.40509246276764
-1481.6986432675787,-457.99635961311975,-310.9073944721185
-1680.1456154752136,-374.8639953500941,-274.9144713026365
-1874.850229181219,-210.68866534443467,-258.7621664890661
-2028.1849561267104,-11.34311920992388,-167.54039350848663
-2154.2422743750417,211.04046743791204,-72.06303885628631
-2343.6239694493024,395.8589324590967,93.23530461472573
-2711.1500869308074,578.9601953776265,342.21268221054083
-3198.2175360597153,925.1620074133369,553.527453309744
-3652.8784039401835,1302.4121387017994,804.4694161614824
-3938.7762385728056,1850.9582783111464,888.6031417456522
-3759.428551034248,2514.355054988197,814.4840490891386
-3307.367959496872,2811.4085849907974,682.8906915205499
-2863.02661969174,2617.0608719593342,541.0675409033666
-2453.447405587025,2198.9670274762534,442.64759117537596
-2154.833709778569,1976.026471832889,436.0989736556317
-1880.7747803786208,1807.9670427719968,487.8669066398822
-1587.6879464445046,1643.568394915695,532.0573284454937
-1303.1055457266243,1502.1949391484352,548.5716325146713
-1089.1588870817252,1391.9330250391317,520.7507150759944
-880.2985729071601,1262.0721653163926,461.52355799381036
-640.6917754788843,1158.9992505085836,394.8178022056462
-419.8630521125971,1106.402288243182,331.58418012267185
-194.88102461085083,1057.7006419113563,276.24927982542465
-14.939862236339629,1025.1207089067116,251.58234463348853
143.40676989593797,1016.2624341645721,265.75741971009467
284.80367913609643,1027.445661872301,342.4054085747937
428.8263576246731,1018.9850764532232,387.7623857280519
664.1605441205713,997.9289563714418,403.1325682062683
874.8196376948297,988.2467509292165,370.99927090290777
1005.2923271453554,987.0985504734034,357.25859493303017
1089.0875069468168,963.0261098336334,335.047136381945
1121.7184257621104,923.6263147965922,284.6486822717238
1037.5306552186528,846.1931444479003,205.15670488902938
907.5025620369852,846.4562312308486,120.79150372451349
782.9636012297779,885.7193842953508,75.62235829768576
671.9491365552967,933.1096755772869,85.57336093365218
532.9781321858127,976.6005720607956,67.6465459662576
384.3259420903163,1113.336358491432,84.58168691653114
231.84777676372667,1273.27884649702,97.45662382159047
119.79422126822107,1443.989537711655,52.031427653683984
-59.19371039039836,1573.3711308142947,84.23549326222513
-249.41544768091046,1729.9485553170555,120.10421499696636
-674.7737504652456,2083.4127862215946,332.319395512229
-1210.6988625065644,2502.6895015117293,452.3889401579541
-1628.8232984760343,2815.3548867350223,437.22168120612037
-2017.2434011614569,3027.1091555220187,411.06698005944946
-2316.93799615567,3075.9841536100507,422.1105066460005
-2672.084758811623,2917.3672966813338,542.9142469650697
-2963.74399004757,2703.6551727654196,617.7583578490107
-3082.7856607506133,2545.3544278627264,549.7912131053928
-3031.534723886343,2432.267899843474,495.99608428974227
-2971.289890023607,2404.399055742787,461.67039712847924
-2846.221696501864,2216.5265406637336,330.74087481453915
-2700.0351802093483,1954.592037036093,157.2055696899553
-2558.671921604218,1677.9940142658302,69.99036368178736
-2435.7553292918583,1421.0663172439113,2.0551054641493276
-2289.2832924597087,1148.6083422983384,-49.7764272203046
-2166.693009335502,864.5633320246976,-121.55017258696905
-2030.305965849704,569.4013755971714,-126.36017396358596
-1902.2907924724552,316.6147461161559,-158.91155491426738
-1794.3538313287413,83.08097056589152,-219.30118847924624
-1643.7519438340314,-150.71201684571187,-271.2006648549709
-1518.3574411241354,-248.68533087241823,-300.3890217352511
-1440.624474208828,-335.0716095710564,-373.50063477334265
-1339.8255265559596,-603.1590808278057,-410.33278438610546
-1149.5566783764082,-1011.7481504897189,-504.2200955474092
-945.8989563204561,-1436.413046249229,-652.7968266431453
-823.2556479531747,-1770.6454293770046,-712.6266360071993
-761.5872902571215,-1969.0720072603795,-781.6767193689997
-692.035506518536,-1923.2255663248918,-784.7134342512479
-680.9777039050033,-1756.3795995574433,-722.3169991791286
-744.5529309193253,-1616.362366353444,-696.2693682348204
-768.4744535595744,-1530.4206839236642,-626.2740079435894
-810.7080399524814,-1482.7183594805567,-521.1035368856848
-865.3220008871533,-1377.1981257616005,-451.6343501603505
-931.2792849749916,-1182.71784962245,-394.4088960042421
-985.540424099973,-988.2844804290968,-333.08316295574946
-1074.6177338846599,-812.9310212967732,-272.21528248688395
-1129.509057629262,-630.2437631607124,-226.55850876701015
-1172.9387711399918,-463.1214532995468,-180.67739748028126
-1236.7628089102805,-338.6110445463028,-158.50570786150217
-1563.2555459815535,-64.48899471277144,-77.97963626722684
-2015.6832353556008,148.13825312415557,-61.92603998307272
-2043.348136213692,249.5786022749869,7.960496193909236
-1993.0149439411014,308.1765944537636,114.48149979860605
-2294.8305486583085,493.6864270673472,258.47052765215443
-2745.2391999306597,688.5052489892064,447.29749710655534
-3124.4512652128915,899.6956147104262,798.0452040197214
-3407.0962051261135,1237.6397648534414,1130.192267491957
-3463.20099116416,1491.528707560686,1348.2687767994169
-3383.5509577684534,1549.509771430611,1412.062223083316
-3225.3011986764086,1404.4653372966304,1340.3557789867082
-3090.188800456833,1328.119184430973,1142.4798478583411
-2891.2727587912286,1344.516221135658,988.4190829692099
-2569.18519576002,1282.6908271428065,848.2417543197729
-2113.433231531665,1151.0046753988365,800.5679819306288
-1769.0138834362397,1020.2770568950662,762.996538063457
-1489.407697837692,1029.2709538935317,716.1344597798434
-1251.3651450801242,1193.261715264642,660.2774647815513
-977.1716131400632,1314.8832679865195,656.1251803623052
-710.6024993244381,1370.9268710517865,667.7784972442171
-441.3790642064314,1430.5088893760867,644.1384162787497
-202.6298481132701,1502.0011930679693,627.8494694926402
-31.353214400432364,1585.0876701014108,551.6430177481608
131.7544727302392,1602.463634370555,475.5344587601271
256.9266773057059,1666.634375653256,406.55065695217024
378.62776789219566,1707.7595305226557,353.28985943212007
477.3995197136637,1679.5949687202053,319.5423513636156
560.3789265447427,1558.7687946444507,293.72109741858844
604.0044255683644,1438.0445921899936,243.76214099616078
602.6696170455763,1364.3293071538192,220.44225092156856
582.6954158657646,1302.5141103230974,212.50274048732243
528.5005582946267,1306.725538282696,203.82801466351916
416.04115574635586,1322.8574487720068,178.5410920140925
318.7775642038821,1307.92880341401,153.58659685009664
225.0687033798494,1250.406611839925,128.82890691520552
119.3078166346306,1219.8763084233658,84.1771654948428
9.775142377876238,1220.3045892328166,35.43962515232012
-141.4917428479654,1255.9742623627847,-2.2681853640131955
-361.2232515690884,1361.9227768911915,-29.464699973997238
-662.048711843494,1450.138426475912,52.07323601841608
-960.8755283404629,1545.583864010646,78.67212554746015
-1221.4160799049625,1644.5269281558947,97.98340921721486
-1507.0385911600804,1716.1212034690748,65.99124063773053
-1804.8671054845438,1830.135673242137,6.200588376254889
-2149.745325875809,2030.2549800390555,16.057981063869928
-2763.104627982033,2457.760805167922,123.16642278453908
-3667.9804010543867,2845.385529207222,273.13914537584196
-4495.653459642182,2929.226596238267,268.30772995875253
-4990.705286718707,2741.354081159214,26.048854603763775
-4902.928115105567,2587.8460024575165,-187.97244726792536
-4571.469360077092,2433.695502541643,-260.98004925229316
-4194.143769788868,2205.7175488061675,-329.1266640493951
-3779.292622863057,1872.9127683765612,-404.207349094747
-3366.0526275537522,1548.4186750827246,-416.54591527177996
-2985.035664574549,1200.654657808732,-464.6092192542816
-2569.6440680558603,814.9113101823764,-402.1414040472537
-2304.793176059103,627.2274426027237,-389.6916888030062
-2050.955219162507,574.9363952012156,-389.63764384371837
-1956.5193006786214,457.8566584919417,-419.22572947948595
-1828.6672818954487,220.4769212728098,-459.6799110807463
-1774.2654219330761,-109.08414188331389,-489.15072935202136
-1608.5207486756437,-439.6118960093406,-528.7238761452688
-1375.9132833332485,-770.3028047294439,-528.0478042960644
-1138.8190666537503,-1031.3511749680065,-523.6161176344624
-930.6307454635376,-1393.085304359797,-554.5991750495838
-791.6464847832849,-1692.4535901658571,-594.6781010844683
-728.5902933213688,-1790.122009044883,-644.4239368183835
-670.8152121264653,-1794.4354086257797,-643.5439217265836
-613.8691602127128,-1716.8655963045487,-572.3096062365845
-597.7831369529861,-1654.0306832608487,-454.5415610835505
-609.7076983475499,-1602.830732207227,-364.6270642880087
-645.3794109099439,-1563.1943630087749,-290.7272106172852
-688.7326457047004,-1442.3987804194094,-232.91439992250162
-725.116120183753,-1290.9403313057978,-202.5737637215563
-725.9737015188674,-1097.0718848944339,-156.14506482845826
-781.3249172755224,-922.2211458551087,-122.24255989558108
-827.8515089250661,-743.2915419638715,-56.82470568440803
-852.7825506161636,-607.4041594224328,-26.25962994498631
-877.8502342798,-490.86079344118536,4.36870898828856
-839.8443913058996,-405.3331157938746,83.14184762380631
-917.2520687492672,-233.9025049328772,148.1229573809609
-1256.3413601994566,125.01006969760317,181.07916566819455
-1619.1971774255226,573.7616821238651,287.9433853558555
-1813.1472011339245,947.6651048013339,393.6665426011941
-1895.9481576277324,1235.590135265356,501.34449582681145
-2179.8983342935667,1614.6900317641603,676.3441134332317
-2626.442261118731,1856.8216465357693,967.1100732666099
-2969.117894489964,2104.837023856261,1141.6742720500886
-3165.046167651543,2649.161538343879,1266.4161563836785
-3142.08215853528,3252.395058455232,1249.019797790275
-2810.0013766168877,3592.7253445366155,1091.9427123431549
-2408.5900893781263,3244.094568481592,965.6936874467837
-2066.618060193848,2605.8541907787067,851.3060015397715
-1742.297318656218,2118.776544487669,751.8418624096914
-1363.8500405337197,1875.635410665212,719.0844987839885
-1008.2882533790848,1725.4108181693036,673.8978142382975
-691.3115080073217,1567.7422973186565,628.1574237889596
-507.07020236268255,1418.384463603779,529.3805733864266
-337.6973788194746,1269.2815589421466,446.07893623204666
-196.08938832322966,1085.426725742226,346.781010844682
-65.00609280437254,952.1355406790292,266.77713592307265
74.62895076300266,842.1622062579985,206.4456261822335
173.23958742282025,752.1691913140575,180.75387619625462
295.51477823721666,700.7520407070713,163.13521946842195
391.1162323525363,653.4810562220534,152.95335308183735
502.34993601280775,579.1121330933602,154.87041956223587
621.7536059714582,512.5246643859015,168.65698276169746
736.5950655932455,441.92563209658755,162.76608219932396
845.0388256948094,383.3011272962735,192.06150928196686
886.6636415085683,332.5784034303254,181.0822248168335
891.0902295891054,317.2449307357763,200.82291098387321
863.3253965421424,321.1167931964535,176.84632366812318
816.9211708381558,298.26087399876616,176.22837564305857
755.0743628048315,310.27517042007213,167.4119092656514
685.3023203642426,349.3272422284879,146.6117379533276
630.262118052546,407.3980411251549,102.42131614771611
594.0805473836632,407.28995120657925,58.70852941626346
562.1889228227785,430.4324106601133,22.831140093711923
465.3056854277455,527.5858728515855,-14.269398826306642
361.17634462329136,690.5681348880607,-51.700529742572655
241.15982522064112,947.2327451270313,-11.193322898237422
-36.669912763277985,1430.1519887015445,96.82990623709424
-380.40207410277725,2076.662264891681,270.0330897911112
-652.0820055778478,2647.9582732125655,315.05560002651265
-765.0686014082282,3092.62592220585,186.27563948953008
-1041.1812392611137,3260.1754931602536,75.60961184502355
-1543.4424599633924,3372.8439375321855,118.72657839323317
-2200.649559227667,3490.356033915762,135.95774296013423
-2739.345240219647,3495.7197411960256,261.307378156659
-3004.0839634329773,3447.8542621588417,300.6745422748849
-2895.229257697583,3307.235396389185,247.83488755079463
-2515.8132491727556,2885.6847139441097,168.5978392213447
-2299.8271581019003,2376.163113805428,59.73834081974987
-2115.5848327410486,1917.861859044628,24.798172668546346
-1895.7034257366176,1613.9966247393352,-14.054034762125703
-1636.5221558840176,1340.9268200659758,-36.722836034731536
-1399.682868257764,1102.986238929706,-44.14626809358956
-1238.078242825022,931.7483544329615,-13.675618075489593
-1096.9087303003575,710.1650410690705,-6.888958002987769
-997.508833291695,519.9604350109365,10.940127362555003
-880.6932030815824,317.55696389694754,-21.948779654622122
-810.5010375612468,157.89489784992838,-75.30349303788756
-762.0125119179334,25.80024779103976,-93.75464608199539
-698.9532613073783,-168.41531001922166,-123.55187551304473
-590.117930180031,-351.51861237017744,-168.398994559814
-507.38223552385375,-545.7806692397506,-186.1277806386483
-505.2979355845269,-739.3493190844989,-197.21719445478325
-487.03583792630513,-921.2595534662705,-188.48128565820136
-440.4919111011406,-1014.2270806034683,-159.99755268108888
-405.5656110904336,-1018.2947285770372,-151.61140654555837
-401.71312323780296,-979.7056079293134,-159.5335818041839
-401.2777044148614,-917.8057746529142,-159.73548561435354
-423.7726440731545,-867.2655799890891,-152.39352888091247
-446.75704751367704,-867.0524593005766,-148.81432497335993
-484.3917137860534,-835.6339830625138,-129.86085972273918
-538.1236201964994,-765.6498396496256,-138.75074566748074
-591.0652465418874,-660.708804739641,-132.0491707157898
-665.655448088797,-520.4631551039347,-90.46840664243142
-763.2851177517298,-407.0523573289554,-41.29340804454121
-825.5234968108376,-309.1779557749079,32.0119510740161
-857.8342247352563,-204.04419450067047,78.26872581360608
-995.3358180418392,29.047534071267968,63.64885052489893
-1285.2299205131212,433.69040396057784,61.865978698128316
-1540.3833113244586,931.765689608582,154.4798682526653
-1628.048314154171,1293.836325350655,328.5525638214885
-1746.182437427664,1811.7195984357554,591.9105912824461
-1984.0618355911554,2244.487159223588,751.7215358965601
-2217.933749037643,2653.097642925974,809.6332590640026
-2304.5790356543775,2955.5046830467086,803.3905564081517
-2151.601209383429,3221.497657202001,828.3328149775919
-1847.0731595397006,3253.924632774699,828.8600082597014
-1523.2316846221697,2879.7295712603186,803.5761447589138
-1256.4637261450139,2350.6804056431097,719.0906170812664
-1021.7760397281438,2019.5173683163978,668.7788388491484
-804.902795551998,1816.2981242320266,633.4670861099356
-650.0976378273928,1632.769600220259,581.4595198156353
-518.7123023662515,1426.1750954709307,525.2558213049309
-406.37730519596397,1212.0550850698253,476.64085085120814
-319.78912268715624,1037.0819800849424,454.980039055131
-231.39298333273854,861.5531297639868,374.47956233780144
-98.91910081424341,732.4672543631108,333.7286433185645
48.01425563265744,603.0234585714796,265.7227493588535
156.30312084146985,497.020899083785,189.21038275048056
281.2866779175356,456.872632346418,136.27283526994438
403.7525556637588,413.22775871474977,122.55561277296529
538.052240061591,388.87081725155895,112.8764664793788
668.1170430269257,310.38224062243484,103.31560726649774
789.6294861140145,227.87904126281657,70.09213135984257
895.0089989955795,204.23998001356225,114.92099748639954
952.1844870572521,172.74094619467405,104.10996619640754
983.0125476080008,153.19298639188716,108.56204718226918
1001.9252242101026,160.67974282757112,97.04659593235205
994.327318707204,176.21409961607688,96.88038218963663
943.2772659368899,176.3609387507457,68.64280870633704
887.9933514502915,180.30418134633135,28.555215083642224
819.230828060551,169.40545446202324,47.18512437988508
736.9713408758344,192.86606537400644,2.7029617657405947
667.6082046366497,251.32945501267002,-10.307087537538305
579.8493879153432,317.8853125175264,-0.07233030647570782
491.6531129386692,477.016106417584,-21.55333370722928
396.81134740201804,709.8489290430474,-27.68407152289518
236.03983011527896,1141.0318508359126,23.397796393263757
-18.917775183166526,1762.7426287264257,95.97375250467796
-350.3561358873826,2552.247709462457,261.0289956305161
-601.6815120352006,3278.1326956707953,305.83532602876625
-757.9927906063743,3789.550967965615,246.82434878373348
-1031.239006184579,3822.640759076749,246.5439268251646
-1447.1098693233675,3771.8690888325787,260.10921160641
-1986.7640835555467,3796.2912921334,353.98326645694505
-2319.9155674975655,3710.5841444326047,427.77503020909285
-2405.3371946587267,3463.914792513244,458.72443698918596
-2273.865183319482,3133.76127423738,430.40997690342783
-2131.9002921486954,2787.802154660358,374.83442357991777
-2041.6452101380187,2407.0605150586593,279.35533541015536
-1903.91214125109,2045.5915118822436,215.91980951701143
-1758.7963269822012,1676.250299541638,144.77115018890245
-1570.0162644735972,1353.244991918749,101.59351052602062
-1430.8963815370184,1053.917494761208,65.44100176920765
-1312.5481178588002,797.8280044663571,87.70069289716673
-1203.2243426654363,568.5050450459637,66.56421917780283
-1124.8285602116932,362.56417838915434,37.03629679860096
-1004.3827402833792,187.10874763553306,-7.663024580259314
-887.2122488311504,-3.6202780766112794,-32.73686732982212
-813.0013817154686,-236.64656126200083,-66.16071747232746
-704.1629914394824,-516.2965946577068,-91.05933218785214
-623.9633310049815,-780.7090086828836,-167.45881621144838
-555.8778991806581,-1001.6937486297564,-157.84391203927947
-481.69660383515276,-1161.3547949605625,-207.21449220681887
-450.18533342170883,-1238.6594810664194,-171.1593663483453
-449.9140889090566,-1161.3445977984327,-179.2661102415198
-479.05247969490097,-1075.729224556806,-148.5940662713567
-508.68237369540066,-1001.8110159942489,-129.66405449363444
-572.7735771134894,-973.9166789882377,-95.39669509975374
-623.2791014260732,-915.7041395379667,-119.89721260573182
-665.7767943181414,-853.6136193297407,-136.4421081612987
-726.8343420026208,-768.0257784258642,-137.64537329261267
-787.5645607827342,-674.6320099116416,-131.02027705689508
-862.9725747324521,-553.9006694436939,-109.00970259976651
-930.7011058822332,-437.09829554435004,-86.8705419281814
-1024.2029643150313,-342.9580947622277,-25.794843295110972
-1126.3173458826411,-183.33171878266282,-4.3151229012965695
-1444.68294473648,163.21475733303424,-37.72542101533144
-1720.7813065623839,532.5784034303254,-78.42871928742233
-1864.5408982680124,739.0597196800131,-45.95718211621706
-2007.963983623358,962.070635742073,104.20276037178853
-2230.608821564959,1386.9466127576698,260.3437463353949
-2657.2274935885343,2025.8803974853802,377.3857535447885
-3025.4674124191242,2875.915832623781,357.22800344664086
-2889.631015688334,3477.568792605018,263.0419154349345
-2466.7037163557384,3589.9109277887965,217.9786165510139
-2170.1702416217568,3401.2124425772313,144.5641477976679
-1864.6632642135696,2984.913298628992,154.4696710905355
-1439.4314062396436,2529.140940076377,181.99996940851364
-1133.1392473474632,2186.4143208944956,199.51767423126145
-872.6241886882882,1909.8162981242322,216.12681190824594
-663.298883920605,1729.8669780200173,180.62335252099342
-484.22753947576393,1534.866646612248,164.34052403216185
-325.02332600837195,1351.4400942217783,128.09777039050036
-189.02173525107963,1175.9061453197578,87.55630108140906
-70.8711945465577,1047.2077620798134,77.9863663942325
32.191727042364114,984.3718293199004,64.04358267094268
107.79012200904491,910.0314582451705,37.954449276766276
168.05535019604048,847.4157841872608,11.596110802363704
267.45728663712896,734.44958268114,13.466168365343927
374.3194668923639,663.8423926621222,-0.39346667822345044
451.14488637812104,589.8099758837117,8.856296492686086
543.8737999214819,527.3676535820082,30.07907899231644
644.2016386839543,468.6993009845361,47.47829279111624
755.2436356961858,425.1778130146381,37.5145437024876
828.9793150566198,343.6433440573489,70.29107799299456
904.1680900205474,307.8186740630083,24.44269959670224
943.0304946133492,276.7081521212647,40.82831547980197
976.7576083575942,256.8920069544646,17.852579627089785
957.0546516904348,233.75974466306033,9.786267481759827
888.4287702732331,222.89466841378047,32.34264504188484
781.1311711950565,250.91137136534905,42.41478996395304
701.6249177853804,317.5437075861788,68.47149638255674
629.799166891854,380.24809695461755,94.65638112913177
574.8680742149461,415.1754166815376,58.39415090780237
495.47908816976246,473.11773133536946,-21.482871316912505
436.4201842627197,623.8623790998967,-89.59461181953064
361.3741695686091,790.0302345857149,-177.6213079899864
139.28303753065524,1205.3351552263007,-225.51941794598568
-188.1549764700484,1835.5095776845305,-134.4342869379452
-503.3227452799886,2469.640499049115,-23.556260292760527
-686.1996706316634,2981.364686207829,-71.19271106850964
-884.1602382057075,3365.8486843111564,-83.3042884165337
-1144.8353923103202,3561.307888014766,-87.8683342425803
-1586.0767948279995,3796.9235161854463,-87.42343205885803
-2205.5951828606103,3953.5417293367263,8.733135168482614
-2576.4353780342935,3794.965661056528,121.4522798305232
-2637.016718247312,3482.901908398893,215.78826612553726
-2562.322505646679,3165.035970489413,214.0547485634748
-2541.102211254608,2816.8028837574507,231.2461441980697
-2452.804984372849,2548.5665339336065,166.75419230828064
-2299.9393268853282,2186.9037846767246,95.69689955285446
-2034.7723228625475,1747.2837309376805,57.98116584154631
-1807.1206783152252,1393.1668816568351,31.18863220365773
-1606.2161900343135,1093.3907093655837,-0.11215348768437745
-1435.0058378753195,817.3076432828746,-4.4655514370350735
-1244.0537798330724,552.7810210418442,3.211871536151489
-1056.507573942172,292.2547455043262,22.59844085391036
-932.4743923766018,97.39197381368766,-25.90629827718946
-856.6289201715164,-57.98626442261119,-28.170680099728248
-801.2777044148614,-252.1421688344134,-58.08354534932929
-673.2829253618719,-431.56021679166696,-106.58073858045306
-583.7946699433548,-664.7397429295428,-143.70044816527562
-510.9471634044246,-936.7266089847196,-208.409599608429
-421.9493914843499,-1200.919784024106,-253.28119184430975
-384.5298853329119,-1321.2259028312421,-260.1642762819108
-382.97583782433355,-1313.108961775938,-216.99764955412908
-388.96667057557886,-1223.7920186812012,-185.99113866610924
-371.5376810633601,-1092.1058669372314,-154.77762538685485
-408.0006934070249,-1010.1859452514366,-112.42881106188149
-422.2165571321502,-936.390102634437,-93.26803750516233
-460.8617621715877,-855.0198079874373,-113.74424497662302
-555.4282043307348,-737.9747416294045,-88.08359633513994
-619.3032279116723,-601.8925932912871,-69.87635940917643
-729.965890492676,-465.59018625116636,-68.06911636491564
-837.3746386380672,-337.1915995778375,-81.885047391311
-940.2466693519195,-266.5803306939679,-64.04113535203153
-1040.3246776422122,-173.09376800436442,-81.55414948019967
-1317.6466989236897,99.41437697888678,-137.64741272503863
-1734.0580116553563,559.2694753050226,-133.6623617647209
-1904.8604773291595,917.5528850320957,-23.615505804734543
-2091.254403899395,1412.0724202454458,164.23039468116025
-2445.126521289126,1970.2140894189151,396.4493481464109
-2800.783142051567,2474.8410517353022,699.4641391300802
-2980.7732508043014,2918.7643078931137,860.1041130253451
-2840.2257651695536,3176.9054672084762,861.3389893592614
-2396.220931714704,3172.6940392488773,781.662443342018
-2000.3976893230617,2894.1687528360862,702.1888208511572
-1612.8749369050595,2569.2157872464095,614.8990735878206
-1240.1890553858864,2306.3023560543106,531.1028740701463
-920.258192145126,2098.1782769855154,469.87809292673853
-691.4461105474347,1891.1147027782172,446.5316902306089
-531.4240846772344,1688.5888657186706,437.83860951497206
-384.3249223741033,1466.4946745320779,393.6950946551575
-271.03649054468144,1310.5494740813633,360.5971458143199
-160.72868920579407,1181.8816823278082,346.9849540872775
-62.171893562021694,1045.5354274905294,329.2979763731754
47.99936777594796,916.8299062370944,311.758857509955
131.41388751510456,819.2858927360517,293.7149791213106
210.92014092478067,733.3442103062719,271.6483202724682
313.5199074097679,643.3552742271827,249.94060153059408
427.4079323724208,553.2082821350818,220.55339998878316
539.2147165443857,463.5354580820158,242.1540485282946
638.5881009315109,385.3191456817568,236.05716529089958
734.8982578148501,322.77791090739447,249.48478838339295
815.9595784493176,244.9501103842801,270.58475626233223
896.3927538965906,174.68758444524892,272.026634987483
930.2289772756243,131.72694039248879,256.97970254878066
921.6225724380905,119.97573075413115,233.34268073195233
875.5161038682935,158.9849744816018,228.5959017605401
829.0017488133054,197.89326630398762,212.06936109680677
781.941845584374,198.04418430350836,187.81643068733973
746.3058230894343,198.07273635747174,159.8099248979009
714.1154216781471,159.35003288584787,128.06106060683314
690.0409416059512,159.2898696292822,100.22872234657096
666.6190799100611,194.14988808614567,84.06183559115499
642.2968087981116,255.8172260659859,36.39407952766746
607.7488235024193,449.21354387074086,-0.0974733471674833
448.512998832425,821.8606761738208,-3.7398092110965524
194.97279907001882,1470.9508343827915,104.08651272350906
-119.07940020292354,2225.081959690618,222.4266186720236
-560.6807625437841,3119.1181494190173,299.1368102257142
-1039.926988319151,3818.5924857112273,218.9555046830467
-1399.040447043588,4064.476656146595,142.10357257575217
-1644.5677168044135,4028.031998694764,177.79465974619265
-2065.945047493283,4179.684193888841,324.03216184935735
-2401.808976561823,4140.639260093916,421.1723677300607
-2356.309239138748,3563.6736296288746,408.10266502832263
-2133.5012466030707,3070.3145314658937,381.707310855389
-2018.9973130477792,2712.8530130064805,313.98489800288587
-1901.7911315280962,2385.9727837742757,206.95446457250947
-1767.8514069534451,1993.6471679931476,151.41460131645363
-1635.257707779925,1604.8497703089233,56.59669713918617
-1496.5457113285374,1286.0966792941526,12.6542703165709
-1283.5575859238377,982.5016697852989,-2.7542025054427355
-1158.7341242932093,764.6658135041018,-23.697287045015372
-1047.8501832939894,562.7660821993239,-5.6568043113601485
-942.4584338178686,360.48599674710533,-34.79271718680692
-844.5544604936447,150.59576919743236,-56.165867039203
-774.3888075948464,-70.86273090198999,-97.53850703349259
-747.0196244385188,-292.0966894913146,-151.32690572213755
-710.8258171750803,-509.2483161936034,-173.59954724600146
-632.762462206768,-684.3764180428587,-218.93511035878717
-567.3507262928728,-898.3067612283503,-287.8771038020119
-470.7560685861125,-1081.4906211601312,-352.5301708534515
-448.26112892781947,-1170.6546068229213,-351.8928482203403
-494.72041930730677,-1162.6294402267852,-360.46458270663277
-550.6967211025172,-1115.3757909173878,-318.29217928650456
-560.866350894546,-1130.386013572423,-275.2234453151688
-563.6277423992904,-1168.7069488561335,-235.8889121157582
-652.5031483738076,-1125.6035445335565,-253.06399229094546
-709.8988951374834,-1009.1937613762092,-266.0898471955255
-765.0318916245609,-842.0163868395426,-224.30901480118087
-816.6927544064488,-671.1017523823122,-194.2630765857862
-890.2204116594352,-515.1422759046159,-125.24664385901406
-957.0301785013232,-358.49449098315944,26.28379721923389
-1033.4008045560922,-213.83754901011054,126.69158173280378
-1178.7307592297066,-87.85140695344487,241.82875905635464
-1438.2995212432384,141.64470027991212,150.82418562913944
-1647.4943023356602,476.09428296105204,158.33643497014782
-1651.7975047544269,631.4837380756936,224.46707081419245
-1662.8206370167184,829.660485486889,309.97435413724367
-2005.0781867406304,1313.3536936670525,448.42734267053487
-2395.762059418864,1787.266803648545,747.0971228707052
-2721.051531358823,2380.3541474407675,1018.8718879535827
-2865.851233601689,3109.930506340086,1135.9026782846336
-2659.2567288523605,3638.0211387170953,1097.9692351618546
-2303.2432074153767,3564.1528962489742,938.7191344648786
-2063.2835881774104,2957.1260318253435,763.828626493247
-1865.795149209975,2473.984490116401,560.411557463558
-1537.6708661979374,2219.575492140538,523.0144850688054
-1212.5955346627036,1961.5465016086025,509.1310488291109
-910.8717044046643,1711.3591287544677,487.02258161553647
-662.4922883961394,1527.38192960899,467.8162267440972
-504.2180561149832,1444.1424951436018,384.1260777125726
-342.27998348059737,1295.1619564275263,308.5620471822692
-161.78307577001323,1142.0005812382415,213.6662366863302
-26.464286988930983,1004.9099335654887,145.5124838757374
79.3349410858958,899.2785507793183,108.20718594015287
212.2987972447268,801.2114228610178,75.20865943008062
387.759326579413,737.6015254954547,38.80519851325377
542.3350481560982,682.4542529813954,64.85435903188143
719.2690674185375,596.0414616612198,75.64550585572036
860.6486414830754,521.2636323311223,58.392417390240304
1026.762452009606,442.8494949855455,88.61741777263389
1167.3711206171324,356.2939433955531,51.76946255856996
1255.3216439864786,297.5103628660144,45.43600515976404
1255.5663758775936,293.7098805402457,53.30168814019059
1194.1080797214138,282.6490187780741,60.26757353428541
1085.5286973635239,264.00146839134675,43.005613537752446
988.8616398056421,314.86797224332474,21.762987360617544
888.0433175447273,361.82692356717126,-7.377962912921335
783.9445682266627,432.1302381547216,-24.87291786695763
671.7288778532935,521.7000708702768,-58.25292021230493
580.1971111439688,657.8199487082745,-60.08320884297901
443.87838864444035,782.078487556913,-129.2633060219341
280.6554735817022,1038.8664834576539,-112.95090576292618
3.108268368912932,1439.7577154277965,-90.98846191105017
-290.05317820050686,1895.7748058715263,24.745045453850196
-499.66706265646275,2370.146788148859,102.42233586392909
-655.2696384596168,2904.906364558744,59.040956901694265
-929.5355702507993,3243.8396394283473,77.33701110980815
-1418.3640692795198,3430.2641574849727,159.65186888488935
-2157.1178740956393,3599.4452743801403,257.9045851539517
-2715.881570159025,3666.542601194088,347.424451775071
-2976.3884710884968,3479.720393814402,426.569725645353
-2852.3195994554717,3076.320659960333,421.9391943222202
-2569.440124813265,2609.127479822366,345.33607297089225
-2405.2556173616886,2251.1764975807237,266.5854292750328
-2213.079899863868,1978.2290588529213,199.7420117981166
-1960.241264855991,1662.0864413433742,114.32956208287234
-1717.4060458974268,1354.1423421861698,71.9104893108248
-1511.9332289823744,1116.3037326711978,48.318233035746154
-1341.6508185771902,901.7737963524752,4.497091259502481
-1238.995987416702,742.2840623454493,-1.2764093752708623
-1139.8387828667285,570.3333962158332,-105.17556963896949
-987.7093604849772,321.4767530196347,-109.90705286718708
-874.660561965605,-43.07638184293312,-106.98352648457936
-826.1404251196893,-383.70595463282575,-81.55985989099234
-729.0787373873852,-752.1447181249458,-94.56154752132483
-569.8735042037802,-1032.11596212774,-110.85538894525656
-449.067724452285,-1215.206008167927,-143.74939454349857
-385.6301591267151,-1258.7071018135655,-193.67266089847197
-341.05326487638496,-1244.0333855088131,-244.07417415733204
-320.88633733232047,-1193.7511790468714,-228.24409966706267
-314.4162379609755,-1131.3343496504924,-165.5631637715224
-331.3119158938068,-1103.5572800089737,-103.11676260496706
-367.3925346576048,-1064.0330795939492,-40.99616076845814
-416.58976306893794,-993.9031167626051,-30.195836498702413
-461.6601999663494,-904.4281176548568,-15.474295503561361
-527.3625550009433,-795.8375184186242,-44.29708412148899
-630.998353158316,-698.3842596605366,-54.02752214058828
-718.9488765276625,-581.6726405041477,-59.66328970647469
-779.5699856729873,-472.8036587417722,-53.089383224648586
-854.1326548821464,-347.9995717191906,-7.531827892297574
-1008.7114356074705,-176.99520223521796,-57.51964228355249
-1263.1326701778896,146.4781551294275,-19.251120413189014
-1582.6607455145236,528.4893414162839,17.84482978387115
-1791.8657237690752,829.1761202857246,143.20894495062026
-1928.2527672548733,1032.6462145584885,277.84105683388316
-2224.969790907191,1434.7101201735559,413.3266711874086
-2561.7310702431514,1938.0930287101103,594.966680772741
-2737.407779414989,2737.397582252859,695.6024738315327
-2676.469538527428,3460.9168268470885,749.0192879321686
-2339.2799783820165,3650.9103516491364,659.2383739605269
-1979.7586331723883,3121.2187648177514,583.9935146048856
-1768.3510678978041,2612.5435291358417,565.3286290425376
-1509.3023611528913,2339.4431329760932,538.7334104918602
-1194.5465576929942,2182.2130900970265,540.0539429876666
-918.973349716774,1932.4438008902125,541.1001718221819
-694.8580809960589,1624.7852222726417,514.0980865025264
-510.5311191895296,1274.624871898151,459.1710726904703
-359.52338464205417,1040.936507369999,419.0503382908537
-228.0034466407999,872.9923062411732,358.79326783356197
-134.06514966884717,782.8228803923869,309.48387063880125
-55.26861874340372,750.7691209536387,255.82844294432863
49.520580422468434,695.0905762926178,179.09275848531357
163.7613252231904,655.2370075408014,149.54138263321317
262.77984836819917,623.2740028450083,123.66098514783336
350.29189376596497,560.5186276659207,105.56000265126217
422.85387976526135,525.0325034542888,94.9926835361719
503.50527448211176,466.4110578026136,100.32314806789272
599.3800125425095,399.89904809491526,101.98385789234857
690.8556948601205,313.96960225969116,91.86990460554829
759.0196448328431,239.75771542779648,73.51817389220581
814.7226626829754,192.44186342940762,23.492120142964215
819.3664503168769,208.05779751495163,43.13216031978301
832.3719108971974,239.22644328083499,78.54333538976104
786.7844778798061,216.57650675816922,101.48460483447458
739.9173010151276,185.88100931510763,89.11228605079208
666.8658512336018,113.11202092457671,107.88699504927779
655.1156613114571,86.11982685218705,107.80133888738764
643.5541188887133,144.13688670443017,95.65896610973167
655.4654239725086,310.19767198788577,71.72938771139992
639.6108762931276,518.7490121499187,15.843738687523265
557.2534963519653,921.648065343415,1.4770079486878804
317.65485665339344,1554.8020985759665,70.31983399020054
-60.259823691066785,2208.4401910948186,144.8710823777743
-422.7957559411216,2728.6586143076383,23.871556545813302
-642.7985091748967,3177.252170720889,-192.86708509021943
-919.9512575650198,3337.8064884542637,-221.10710589243016
-1352.7759224607794,3519.4689317962816,-188.95749312966203
-1830.7169114835342,3893.0011777722266,57.72348355452678
-2236.400809654673,4169.181116895169,297.96617601321555
-2447.5432487138833,3916.1283414825657,370.2253062972575
-2323.035899109278,3338.061417507508,303.397184563536
-2143.1171704914523,2747.360209653654,170.72292780919074
-2022.6784885766292,2370.0856051760798,56.061040212508864
-1937.6239592521404,2055.696899552855,19.149658649997708
-1817.2770517964852,1748.9050797163152,-1.5604513263958641
-1681.9301188479249,1480.5157724605244,-41.79847348482918
-1525.158948264698,1189.3460050068068,-14.920181713429155
-1382.7045933116815,937.1926192940507,35.159611080236374
-1214.5431926294914,680.6503750006374,50.317896529395874
-1066.1336949926836,451.1673201348065,45.4658828448043
-961.1773643395044,244.91544003303886,4.563005715509374
-863.8199589054368,54.1978147481556,-36.50614633947373
-766.4615337551561,-175.13829901138516,-69.5956315357436
-683.4168650864465,-447.5565050246517,-173.39764343583184
-598.5989099233684,-738.8404806942228,-222.16455160528827
-570.5475366205585,-998.5224312073952,-248.34066679243168
-491.065756399994,-1184.8796479939633,-250.4463807722311
-395.79061147282715,-1317.1980237899793,-252.49703007652974
-367.9982460881137,-1336.5114488637814,-224.5435495301658
-339.2524460442659,-1259.0334110017184,-189.05232673746897
-375.68894576639326,-1173.2446860038851,-146.71676872326435
-462.4382434368516,-1098.7136279973283,-109.02091947810925
-531.3394482315572,-1013.1023336205536,-114.26735939388068
-584.0893679289055,-919.6993876604143,-99.67369081184708
-669.4946796306589,-834.2400309993731,-136.56243467443014
-733.7786094130004,-736.8795664166663,-122.15588401747794
-828.371564193685,-623.703303370672,-96.48208103684745
-888.1208159769138,-506.8917520254114,-66.37424604732503
-917.1235845064319,-382.6148582849394,-39.7555740237492
-928.9145630770959,-215.52517934258896,30.147298006964668
-1026.8950151172928,-17.241667643894708,51.55838130248353
-1446.1819275695575,446.75194893261215,82.95880856357677
-1968.307220100646,985.2253317901628,132.19091126939372
-2102.57325386345,1335.981196433033,297.7550947571291
-2108.344847628905,1662.9226086380163,508.4947459122127
-2297.7979228380746,2115.187143417987,727.8346836075522
-2585.3069090872013,2517.5671610590775,906.6276455262503
-2644.164928900287,2921.3747813983373,1014.2729678330521
-2480.5004767173295,3333.80920089939,983.9364104969588
-2194.2253470859064,3446.752968648825,885.8030010248149
-1914.812907567824,3033.747508068505,808.965344944502
-1609.2141557004688,2546.9553823171013,724.9182952384352
-1223.9959619237966,2230.139752106989,680.7380705949536
-920.9465005888862,1987.0088154466616,584.0567370100902
-716.7544472373339,1779.7412979967676,517.1715111684418
-586.1879438952141,1572.9428500048439,437.40828927309536
-466.22750888427754,1366.4707112010728,384.9571464261496
-354.08319864581694,1183.1971162425498,324.4614623750211
-253.8818046937538,1023.0914736428853,248.00925902321387
-136.2769141347963,932.8822788617929,214.75427388557767
-34.79536844896066,858.0606017345374,157.65730397230453
52.989349064155455,833.9922399596194,139.42987666532406
175.64611768544816,798.1196433032688,129.61510811541152
321.9417436127526,758.3354152539349,135.8649487847532
441.61869751648123,691.8152478165327,157.50536625657082
583.7620390245396,609.5057945373803,163.83678422295077
702.894464470538,504.230292709539,177.74979223282165
836.5119587218877,441.08436622088084,156.41732905732337
943.4281839364106,397.52412903488965,138.54170384382027
1034.6040696874063,365.5866172444209,108.61915129019596
1095.5729020613564,345.6297512402299,93.90087338693642
1109.2982822880394,337.3629119016178,47.038897074944046
1100.4981313700398,317.8394252879424,19.50054299888341
1037.9793303523631,291.0637169675679,-0.9687834275721068
960.1974170588327,268.30976939117846,-17.755502643614285
839.1866743485289,261.1177109410452,-62.71479047381114
747.3031055457268,289.0161268119083,-52.41137391463956
657.9902413158419,328.1477364849363,-81.3534693294856
580.782428250218,444.5656773719874,-110.37510260894395
496.24795419434776,615.204988451714,-139.68888458342045
333.6776575079156,1003.4588773944212,-131.66065883864522
48.272549749404746,1698.8676051454881,-63.71370447604432
-328.60660878077636,2402.971453044618,30.305761906461438
-631.4572254541562,2842.112240163563,-18.882900888682684
-867.1819632596249,3291.7459071140506,-133.82041777773247
-1294.764267104465,3612.762768121632,-90.28781490111304
-1873.2900633753627,3668.2965130804105,-12.799171990435063
-2469.100049456237,3688.721428826358,17.453360729708926
-2818.954484966834,3561.3282823390255,173.55162058399148
-2813.6213691729595,3326.0899491671476,264.6918162675328
-2556.224602693071,3038.12209062218,304.8400830048997
-2404.3174784457487,2719.6953087955626,308.18985076453225
-2290.5375434016714,2440.2930664396104,314.761921757175
-2164.2558875864847,2113.6881605849094,247.1119087557933
-1962.2908944440765,1724.3605104699363,153.3347269454911
-1779.0580881340725,1393.2382617917435,63.00581748099504
-1552.477145610377,1100.6510888019866,-7.181035317871037
-1348.0750307189512,808.4748614460597,-50.2289772756242
-1204.029918473689,544.1338275557913,-62.878149011130205
-1067.7040579606696,318.4716493399887,-83.6224398749828
-858.4868431115622,103.74796694080038,-115.08619151290196
-725.0304640218628,-59.84857214237279,-120.38361723932232
-685.4481397826985,-207.63257585413982,-170.31300189157358
-641.4667598007475,-355.3088975338164,-204.47757389118613
-578.1627772990777,-534.0151835744114,-230.39876002508507
-530.380914991358,-766.6960684841409,-248.5211565621288
-494.2411526872072,-1010.8946480194562,-266.77917535549864
-433.0459433139758,-1173.6831639754657,-245.6904243549021
-410.5244910341453,-1239.6690001172676,-249.05446814151625
-457.0102940351701,-1254.8219830421194,-253.62483620808334
-492.15481331545436,-1281.7017024162178,-261.909010722316
-542.2198202240317,-1393.2994447645224,-238.73494006617963
-612.5363911223507,-1412.3171521365605,-263.2723712990675
-746.2915470624527,-1310.5800655677526,-253.84509491008657
-878.5497596019028,-1092.6157250437204,-225.16455670386935
-960.2473831532685,-944.4407621358976,-168.01864041237326
-1050.226122070228,-838.8267145253477,-118.70312492033469
-1098.1629812423203,-725.9053805325979,-80.55554139283039
-1122.2792696792485,-589.8120153161376,-26.431146212009203
-1158.2548576731097,-418.9493863857689,11.699815941223559
-1147.0073878439632,-186.40616316479125,66.02846027950423
-1436.3926519249694,330.36154038331136,56.02575803153984
-1945.6083371997574,855.5062126210277,-75.03653133332995
-2142.1994258997725,1182.401737596427,-35.91338530486966
-2116.4719858463395,1365.3796148531865,112.99067469523233
-2374.888468539206,1823.1506171832382,452.94162634538816
-2826.765511158245,2170.200833108146,790.3687803684236
-3118.9142061764214,2479.7254923954665,965.4805667582714
-3079.6959206252905,2995.2328267043285,1101.691199339224
-2807.003410950733,3251.6404684576287,1026.4157484971934
-2409.3446793757303,3111.6028409293694,860.1642762819109
-2058.042246842704,2619.467402221962,651.2325819724372
-1699.3774632519771,2201.5571066572174,528.5025977270526
-1344.3530665415817,1916.0263698612678,495.5372119939022
-1065.6340340483246,1681.4916408763443,473.0310554572663
-852.2930868339342,1466.810786558101,449.478670086115
-699.4600602652282,1318.5338520289806,444.41883823731854
-563.9234601010539,1173.7749384346337,384.14341288819327
-454.8699097041294,1021.6230822961971,339.19534193633916
-376.01729438697214,900.7591787205622,305.4621098948163
-292.7115783677403,807.0503178965295,283.47804805922516
-194.4017579907512,732.4285051470176,245.9565702864893
-72.53496351965249,661.6000367097838,220.54830140771827
29.73747406096884,583.1145192292986,187.0241111898559
136.29832817526884,566.4982435388232,153.35410155353767
247.42190248453858,534.58316550504,143.35272493665013
377.4591731121229,471.5351317728277,129.81497249315518
533.7337418996294,419.67950319426103,93.084386615205
715.3380614175076,391.3711614057808,115.52364976826951
857.5894928441417,363.1545940764685,113.82480255744827
938.7303513432213,374.17058832526914,118.92746248718983
982.1264142189231,401.1288258477666,143.03457347820103
982.0988818811726,435.8797346698414,135.06753070620448
943.9716926779278,494.20750205217894,134.2996843978321
891.0045734272153,498.733002605375,160.96322393477897
844.9541892491321,487.551814330072,168.1603809659772
724.9794782112139,472.8964529171532,154.63894398188984
642.2019751903047,480.77987895968556,98.42759759958805
563.686885939643,546.6647631964025,42.084605854190784
454.751622623424,651.5089250661542,-10.920956697751016
329.93631872249955,864.4888927411503,-99.85071354642004
144.57128581115876,1299.342792900736,-92.32041522844193
-391.5679666348856,2256.3770502669113,22.008025166596138
-1021.2865759459144,3199.3902097046393,217.3994177420424
-1312.8540327226935,3638.367842229508,160.53086426047633
-1320.8791993188297,3606.4507247632987,46.704022270602096
-1569.7613354203527,3253.4963519652483,161.9054417155706
-2052.1176956453023,3096.837350165449,390.6859121106596
-2406.652628573468,3263.764894229936,573.1937001932363
-2440.8845018431375,3397.439492589213,780.2348406438489
-2366.934682077978,3366.16479633718,808.9204774311311
-2353.178710364906,3187.979585281417,797.9534295605533
-2370.2691540944156,2788.9034481703743,720.5518704144638
-2353.953694686769,2284.969892878812,628.3052826398414
-2306.9039886199675,1942.9774693702743,500.6510888019864
-2175.258625524517,1669.7954959134875,354.4095078339698
-1979.1977892552507,1337.9084600755612,189.7069845462008
-1804.897696970933,1064.4715575655296,51.95392922149767
-1628.9660587458513,791.4405021082633,-38.68048722040656
-1480.5565611090435,542.6470813172695,-39.5427592501007
-1375.4951996859277,332.56106825470476,-76.50645225433763
-1291.7764986004395,161.71679421616966,-70.75147986315409
-1134.9543422065642,13.451178537013151,-71.82687258136062
-947.1124186138999,-88.66208134276232,-76.51797504754427
-868.015071405628,-174.7069590532955,-110.36490544681418
-882.5990526836383,-333.7143672915828,-164.9911029760418
-824.212141760948,-528.1049084039912,-218.40587764425163
-745.5216613216543,-710.7993045535428,-244.08335160324884
-712.8285398173689,-858.3185899364208,-270.5674210867116
-714.161308907731,-989.9578347345936,-281.91788225336893
-689.8849250253655,-1083.5300535860872,-340.1079879469544
-656.1578112811205,-1103.3431396042483,-363.08321394156013
-651.1877144590661,-1079.9202581921454,-335.61511831257366
-678.3794669943355,-1072.0480490279556,-343.8982731105934
-730.7745254495675,-1044.209796413658,-305.5314505972988
-744.3071793119975,-1008.8572550259263,-258.7580876242142
-812.6353035950095,-919.2384759321482,-248.31007530604236
-899.7404822237972,-798.4530905049126,-230.39876002508507
-951.726634477625,-693.2734420010911,-196.21073455257402
-984.339198401085,-553.4570928910484,-165.77424502760886
-972.8164051944345,-436.7026456537146,-79.6535004308301
-1012.208042501772,-261.8386503036205,-29.813442918835694
-1172.4900960062816,123.12869328465891,44.979478211213824
-1517.6742312614401,570.3344159320462,-4.870592913992037
-1853.0181050613617,1005.4330479827465,-101.62777299077668
-1844.3709115753088,1396.6543111052197,-43.948851034757034
-1986.672309096379,1990.6899909755116,61.80499966859224
-2274.711547776254,2478.889325100825,318.79285994707675
-2535.605940866657,2965.9363799054727,470.22683587157695
-2672.084758811623,3452.3002248474254,654.9239546634172
-2508.512081087834,3838.6706979447627,738.4876588845325
-2071.889993014944,3668.541244971525,702.430493593633
-1747.3245195861994,3139.0536013827355,618.8127444132299
-1451.5354376876917,2644.0731544411196,475.77715121881585
-1158.8462930766368,2300.9284516119164,434.22371553996527
-888.4389674353628,2000.6424212141762,407.89056405602327
-675.8301764618907,1739.4319160977502,372.7093349920718
-483.4709100457343,1512.8815650604438,301.7880723794568
-371.40919682052487,1356.6202525837061,233.34981874544317
-280.77783952725963,1208.690021566998,211.65943517918967
-202.034333844891,1072.353963891849,177.9771889483157
-109.65824211122046,978.9275644588112,195.37456725793214
-28.597533306480805,901.0997639356967,216.47453513687142
70.91269699642591,803.607755961516,218.29370886082407
192.56117022632603,721.139226953139,188.99726206196817
303.5501419954827,631.2614399412644,187.03838721683758
426.1261490927075,545.162721214686,185.23960781714453
575.103628660144,454.8505350960828,168.15324295248632
717.1113479118762,353.1970652567391,174.54788332407094
861.3359302106226,270.4124242223389,129.8924709253415
973.9319747314323,235.00481815910632,163.09545053611583
1047.0650018099964,222.83348544100178,164.23141439737324
1063.4110527040325,238.394354851045,187.97142755171237
1041.6503087190836,238.91441011966373,226.889916536228
972.9418302886307,274.3719822773322,237.515359475458
896.4447594234525,278.9719221140757,252.05243380767135
822.3297456317907,267.7264917173551,227.43240556153225
729.5457674129291,283.8125149770819,214.21484400891234
685.6847139441094,306.9417181198473,166.38403532296962
644.6401166555348,356.81501838038474,83.183859931781
607.2042950446892,410.45820948030166,-7.824129544747698
507.17421341640625,569.6093977046189,-37.331708585500664
303.5042547658987,999.9989802837871,-112.47775744010443
-4.819372568614155,1563.3371232785917,-122.9206711772114
-319.3506447155757,2146.4312481836305,-94.27796444249567
-636.4456771680442,2732.7272819974205,-140.25176793298425
-846.4256397444592,3259.0843968123672,-306.0820973523069
-1168.5743857484463,3486.960378926545,-201.78756252135034
-1658.2217168961881,3523.557993810323,-1.2402706326829245
-2162.17566651201,3776.824909627651,186.58767265070134
-2610.045224414046,4017.6206961602593,328.20178144422414
-2821.6567329312256,3795.35315321746,380.7273635747172
-2653.423952114127,3290.675205090424,337.8544151162732
-2463.991271229217,3002.595177762029,306.3421249866162
-2382.1998337862574,2711.537579091739,281.0766163776621
-2243.110542336068,2350.4152794277356,256.9062829814463
-2039.5955805499332,1949.880948132135,210.28587744030835
-1844.829783871149,1537.5688945766394,136.1015229461641
-1664.5745489030403,1214.420826683934,69.24862210846722
-1488.11265824721,879.7265121116794,6.302284674175178
-1334.9512830579251,584.7868538185824,40.988512896860804
-1245.9504519892116,320.5885801981309,-3.8825898752377213
-1135.974058419542,48.949335399958194,2.6058643879408363
-1032.432074153763,-184.6910004945624,-73.54743974751827
-904.6269623163873,-410.4989981288208,-117.96688981456462
-832.5962484640526,-721.3105392769194,-198.25628527580776
-726.5386243008571,-1067.3063686376083,-289.69117894489966
-658.399147517246,-1299.8628481693545,-276.11263785288554
-617.2903081072538,-1424.0948743964557,-286.8512692917561
-600.8657390648183,-1493.476365527474,-243.20027736280997
-596.3014892955291,-1547.3989588697466,-211.55338469303996
-571.0798284837331,-1635.8695375077118,-132.38465734985954
-572.4513467901884,-1612.0489667725474,-65.76680109925408
-622.2879372670587,-1355.7127051541559,-0.6594545537976783
-681.7934768753856,-1126.8475983133894,13.375617565631487
-724.5950451989213,-933.5257197921819,-38.9377616209409
-761.3598935416275,-797.6179429264836,-16.399280080353638
-828.1247928701445,-704.741170532241,-72.65732946520984
-869.5874738060398,-592.1869343761632,-69.73349716773822
-946.6321322775872,-471.86653954204553,-94.84115370692336
-997.8014918448197,-347.1715621542525,-41.08365241953165
-1070.2839399795039,-184.22295075280553,-54.492920620191406
-1295.682011696145,57.46213028914054,-50.835198564239576
-1628.8640871245534,412.0020598267502,-68.79597008152632
-1825.2206410955832,754.407468401544,-25.79678075591563
-1922.0834841663568,956.8333732722185,27.014015999347386
-2144.6263504866597,1242.7077544319418,215.02245924959087
-2585.5618381404456,1592.3888381863328,423.0924933590982
-2792.992510184416,2009.3813891593973,575.563520672197
-2857.2652230884146,2636.8229721668463,592.106376795338
-2839.1142744974077,3239.842351873474,547.1736015866785
-2605.334135510088,3500.318661316556,459.53001279743853
-2208.797091769361,3206.5180260333555,403.66689950186867
-1823.8134327216737,2603.8657441633995,411.4667088149369
-1559.9312711272455,2276.9039376341566,424.37223720638553
-1282.4562924138213,2143.463874003865,456.4504698342452
-1041.6197172326943,2002.0802210744753,433.0632784895964
-844.1292388328328,1822.1614924566495,389.5326130737816
-704.8747533561411,1638.7145457419201,333.36868349538327
-579.7535345913233,1502.0521788786182,304.30677142551235
-428.1747589645802,1349.604605038418,263.92091081052143
-290.4019211453453,1213.125787093452,266.44470843764185
-184.71139481882193,1072.7108645663914,233.17952613787583
-61.97111143968634,971.2093324427813,239.28558682118768
128.19464343073324,864.8213202265811,191.47313302707857
361.2120346907456,804.5652694855023,148.07095185409904
588.0764583216492,752.4822441914416,147.7201694768346
788.8392060489567,708.5498105877135,170.49859024233558
936.6898992010525,638.2607720271449,227.89535672222425
1083.7543911529424,571.635573819806,261.7203632229151
1161.2324290150052,493.90464633692443,290.6150418338577
1168.2786680466827,458.9243013669297,279.06471628945667
1133.6796969403415,470.7988966670576,278.5069315209577
1050.8787404465338,474.81351939755166,222.30833159131817
963.8112913176265,517.3744346948245,146.2925667786655
866.5201674374023,537.1875207129857,113.3710288426731
717.4702880188445,553.109369662423,32.59257748568574
627.3956957778652,561.1549305828189,-11.954643022846744
551.0984892904305,530.052566370779,-95.40964549565857
505.98420459586106,491.07697327833677,-166.59715601148204
473.5205192394957,490.9046412383434,-214.17813422524512
432.0690551819429,444.12719940040694,-289.20885317616114
361.42413566304504,455.9273554169875,-329.55290542641984
182.73416508185775,685.7856658491942,-309.45735801726386
-69.59552956412232,1229.9103159590686,-256.2036985107045
-365.8782560813326,1886.9644577913969,-160.8184242325361
-780.9659771685541,2618.488474657503,-63.538823145518606
-1359.8323586545866,3269.669051103079,-7.687966838828754
-2207.5836294759174,3574.574395945609,29.605012924903
-2824.1040518423724,3525.2813142102555,32.310218066312146
-3187.398347040019,3362.7385498615745,141.23069549744307
-3112.377825251233,3226.473872321333,111.41725257860739
-3014.5870404266493,3174.8864291067803,54.186801813055425
-3049.0126597767844,2978.264748920376,101.42984607383767
-2979.406831078911,2780.8374929257193,150.23376994182522
-2780.8170986014593,2466.0205064930433,166.04446982404798
-2553.1144682434883,2100.3400753570286,143.2160829641111
-2346.0203025498004,1738.330622587734,80.82127943793243
-2189.6264269653757,1407.453105800656,-5.986019690720073
-2011.8083137462845,1131.028434786599,-41.63613466372309
-1898.2425191069328,878.6007454125518,-46.93274461717305
-1797.1172622659114,656.9389139002617,-83.91632208756303
-1750.7303717375457,463.5211820550341,-39.39826546272173
-1735.8119235416787,374.45610886490294,-34.949549540362916
-1693.8302070533773,219.55101895142585,-14.175075076606182
-1607.8885246235975,-28.971361270158514,-39.52175309611335
-1518.14330071941,-405.9734975756248,-150.71915485920272
-1366.1749934993093,-798.754926503954,-241.30870378773588
-1198.105367276287,-1172.1739839802585,-316.02433042884167
-1008.1536508389715,-1386.7528666772039,-347.77625386854845
-832.9378533954001,-1465.8726476421614,-388.0560639973896
-685.6541224577201,-1409.859636063284,-484.15411990842955
-631.6254786292976,-1340.73307398551,-495.35162364314016
-632.6696680313869,-1328.4149021327366,-416.9170919733039
-605.1546654566035,-1516.7258951833708,-251.03577674333235
-528.1824068361776,-1596.457505876115,-14.136223888891724
-507.56374500976386,-1436.9331015178477,103.37271137442453
-559.4815762773221,-1102.8842673084082,203.50884348885708
-605.0302600786202,-746.0610911983197,260.4916051862767
-633.3793905156195,-567.5536498192554,294.7867008611504
-630.0184058776443,-502.0542183110441,267.1442337597447
-638.9531593357569,-463.68433664911055,223.7094216679498
-670.7642263158165,-371.0074286326116,175.8245680227193
-832.5044740048845,-199.8072736357472,141.4275007265478
-1114.162328623944,61.022367475131674,73.53489723809864
-1456.552441455543,299.3896998465327,36.20512611340264
-1618.6465306705145,478.22447012996287,-9.997053020144495
-1664.5133659302617,745.1464057552784,-54.755395573411924
-1975.108727241209,1069.4783641712513,29.764394568991456
-2634.9874829834857,1526.2908332611037,344.08284174514233
-3128.5811158754523,2395.211412663856,592.7824486445422
-3293.7853395400066,3511.831257361077,708.204126791514
-3212.5139573656656,4154.364640320599,809.293693565081
-2880.1986407182885,3946.3527300352316,771.8028072787345
-2403.624071420924,3287.6976337485285,655.5755533235101
-1991.3018207032983,2691.6429157765397,561.7218927972345
-1626.2128249708107,2309.10657564,505.68746717788446
-1342.9662524919318,2055.401181851091,506.86218025523505
-1068.897125929854,1824.5680227192775,460.7261399152616
-845.4354953016576,1655.7642008229113,386.1502143953338
-675.2438396394284,1468.2485864184,334.3873799921482
-527.2636425282844,1268.5575604309322,199.91536355432285
-348.76639831135003,1108.1663972916338,159.9598231812087
-178.62980732462157,951.5318686809463,100.24269245868875
-33.91484349905422,880.4566289201716,67.32859845105108
143.3180545854089,836.5996543162039,77.98055401181851
303.71839517062404,823.4014673716305,41.18154517597753
455.5949279315567,713.5107299638512,0.656416819199217
663.2030305965851,540.863597660771,-85.91761712715352
874.2557346290529,368.0849219662168,-184.2137733068887
1034.471506579719,187.78379976852443,-302.8689715652134
1143.968633529289,116.83908368301103,-352.0090958686198
1186.2154762329644,193.71446926320408,-371.25929853721715
1177.6192685575606,364.47308713984904,-320.9434414402472
1123.9312099442727,524.2891303350278,-235.94499650747198
993.7256861415469,646.2186373532247,-128.4179612813754
812.985066256061,725.945149464904,-25.42917306113709
655.3104271081359,817.0649508241858,73.94176400707684
526.3346810582615,973.0652159504011,98.95591256953192
384.3820264820301,1063.1459264886585,96.52572489076292
253.47187877613663,1118.2513906379857,86.52965079818289
162.79667368571327,1157.041395379666,18.32205697154482
62.885898854348845,1249.5704445452832,-105.15007673364504
-76.55203356905774,1459.00995752882,-170.73924326859836
-267.2390673675516,1684.9892674868586,-162.5835529972009
-426.0619069712899,1922.572947948586,-126.51822997659754
-646.0503841780833,2191.645465067072,-83.62570296686434
-915.9967980910914,2441.843035083337,-33.56854787312692
-1196.2392866065375,2614.1954694008664,-42.27243758062132
-1519.438340309892,2763.573697440003,-63.31611712460423
-1922.9706372716475,2902.1429336215733,-65.90344307179312
-2298.511724187159,3106.4022882431823,-52.59471888973299
-2567.2885236038815,3291.236049007562,44.7959292928778
-2852.635711481495,3329.1389006439513,138.50907292500497
-3121.7796087348893,3242.5445998378655,170.09172347335738
-3257.7893572218854,3061.789703925398,172.58900847894034
-3188.030571092065,2782.305884272407,131.40572978540075
-2940.7187979585283,2466.764899328517,108.70174830344718
-2703.461426684954,2190.3096368280712,121.03827504805413
-2401.7579907511745,1801.083958334396,126.87003207007491
-2094.701044699261,1450.8216363386073,167.97275318278926
-1824.313093666033,1088.7510005965341,153.6212672013379
-1634.6356808900086,758.2507788082578,137.954347305145
-1443.8671717660977,466.6425333829596,145.7205059831849
-1289.9002207685603,221.11118475728205,82.13630546618877
-1193.3330953995505,14.74815558829978,21.485114692581057
-1185.6750266400861,-113.76158015224365,-64.30830099983176
-1161.8034700942728,-323.2908281625224,-110.33941254148972
-1084.5803612854545,-599.0404470435878,-159.27253445366156
-993.6910157903058,-1006.6495694248292,-231.1033839282528
-863.1387884751674,-1434.5775570658689,-376.8402053708453
-665.9062982771895,-1793.211749170206,-502.1888208511572
-569.1780577465292,-1879.8162471384214,-582.864688757119
-513.8686503546063,-1764.0274711547777,-566.7276796867432
-477.3464944705889,-1534.9890125578054,-449.2145635869538
-494.5796984699159,-1413.6121917270425,-304.6718298297584
-568.7120474371983,-1395.838538134837,-113.53520315296254
-613.9242248882136,-1436.7087639509925,35.060596635956216
-649.76113147711,-1362.3612548627718,97.0669902566116
-726.0695548428873,-1234.1319410807973,91.56674297542995
-779.4221268221055,-1032.7379890176567,66.54045979004044
-798.7212758689258,-824.0591843290014,22.37655060596636
-855.3818072430444,-622.5071762528489,12.998628481693547
-896.0011828708073,-409.332442781174,19.520223521793884
-988.5230940229336,-253.15474703390052,96.09989140022333
-1148.9346514864915,-61.316249687711924,206.8637098295545
-1460.8352495500505,270.410384789913,252.09322245619046
-1974.965966971392,649.5612670993663,231.3389383734507
-2297.848908648723,826.0506900929472,214.1332667118741
-2395.3235814472837,890.2928115105568,389.06456333202476
-2672.033773000974,1266.3549734109,662.2985423156737
-3193.995910937986,1899.5477558595444,919.2180816078886
-3693.5446865137437,2456.1394563892873,1282.7010243049363
-3686.070166672616,2589.3143938042044,1470.7366939780661
-3184.2066352933984,2605.9867538863937,1611.6410802873563
-2583.379645444673,2395.5887076626577,1542.861221721995
-2122.549494475688,2096.1184502353,1342.7623092493359
-1765.0573845298857,1820.805269893389,1156.7456776779024
-1459.4382383382706,1608.2250309738802,1016.8263372303489
-1152.972727689884,1419.0166876558255,896.4671931801381
-928.7840394018345,1335.369366705246,825.5398122702452
-786.5244502454967,1302.299969918372,713.9685825434782
-690.4233351858179,1223.2617662504526,613.6346254837279
-602.1393646148277,1167.4221064277813,505.25612721979473
-478.68232270959004,1103.72043460305,413.12884624209084
-350.6640901837019,1101.9563255545982,328.7106198345001
-220.92967527137202,1170.1447487164323,279.40428178837834
-118.76838675796527,1172.7246307352666,225.98134939046466
-14.452437886536178,1191.3038601357243,231.40521992729427
102.10418440547997,1267.8845477303669,244.66662927707225
247.172072012359,1285.7193842953507,203.60877567772891
409.9718048467112,1284.7098652445025,233.52317050164942
506.6623158774913,1295.641223047626,242.78423314791496
569.3524292189485,1345.627711807804,263.17753769126057
669.352939077055,1298.4658369575748,268.75946424110174
714.0970667863135,1181.8816823278082,250.19960944869044
750.3979442521147,1038.1322877843097,215.9065532062427
751.7470288018845,855.9610060520158,181.21988650558552
710.1334298664683,708.7343792222625,122.22420500374747
655.5306858101392,693.5395879326785,105.75884731279285
612.1601158397618,747.6865188418064,65.68022719277226
570.8330571601923,860.2754253491255,72.53057873993669
512.6470303314588,961.0346040696876,39.92219565294979
459.57080144595767,988.7035837926305,58.656931775886775
394.1978147481556,1027.863745519622,53.620961286473985
305.2958961521009,1028.4755752474089,44.43790693050124
125.89926223531992,1138.4417716549488,68.8521564448614
-98.37691770380304,1287.7180280727875,123.85881009315108
-297.54197406861675,1487.5212228436828,226.16591802501367
-546.5862450480032,1776.6005720607957,315.6511142948917
-844.3647932780309,2240.1839568048213,407.7416854889285
-1197.9014240336917,2801.2726058337967,537.9155980890519
-1694.992683536172,3204.8762829304605,670.3940693305054
-2448.2162614144486,3432.354575721577,783.9323316321069
-3170.0121856087453,3441.4810358277296,737.7677392381701
-3637.460294799958,3134.831976261007,649.3828167620952
-3691.4338739528794,2957.5951012833134,684.4947051235642
-3510.8217383102287,2891.415519061046,797.3120280625902
-3116.6096475350914,2866.4936548158653,952.4373766780707
-2809.90960215772,2697.6592414331094,945.8265564693347
-2607.118638882799,2129.8914512091287,801.6437825353205
-2367.128428158444,1507.426083321012,630.731187510516
-2130.0138171546864,947.0186047223059,475.26423396368796
-1898.3138992418412,557.1719190549271,350.53764537329266
-1742.9295427082648,314.8649130946858,216.32055798871176
-1628.0279198299115,169.91021398744732,116.49034073817258
-1512.8611707361842,16.298940004996613,-85.34657604788589
-1344.709967216124,-253.824700585827,-289.9216348090327
-1118.689868609566,-690.4416900776515,-457.7465291409401
-911.3397541464211,-1234.8967282405308,-586.2409691382888
-778.8510857428379,-1697.0932989349067,-669.0388664834577
-666.1867202357585,-1942.029133292205,-701.8461962035966
-554.1627365104292,-2000.7443928354742,-680.34649956917
-480.71461712205496,-1787.8480418899424,-605.3973579152922
-454.7455043261461,-1454.1968970035641,-480.54636394691363
-479.0341248030674,-1181.9836539491062,-348.3911427449741
-520.3958538338782,-1068.4076621476243,-231.65505039947385
-573.9085212585338,-1044.7094573580175,-224.68732951619566
-639.4181499288749,-1024.8963713398564,-229.66048548688906
-693.4508726221494,-920.2296400911627,-254.3702487597702
-748.2483824751573,-750.1022265503511,-314.6344572305528
-858.2033620043543,-513.2129728296616,-313.15586872173475
-990.8429484074584,-272.17347412215184,-300.25747834377694
-1113.4587244369893,-49.92224663876044,-216.50206747462184
-1189.5295539251429,175.90920446839647,-124.21265161905444
-1256.0354453355633,350.94859100712273,-78.70373675006246
-1313.8533546114118,439.2162461187052,-209.38036944318398
-1463.8842010268545,412.4109660281544,-309.6521238139426
-1622.2869175508458,601.7661484808779,-473.5735444825705
-1570.4853339315669,1096.1337459784943,-525.4852574528509
-1593.9999898028382,1679.3604339912206,-657.3172286152765
-1818.0928247668676,2319.150780337832,-698.1538037964035
-2059.4494552166134,3172.989756950641,-614.3841169002668
-1927.6001488785676,3851.0092641217957,-394.91773439451805
-1552.2630052056516,3957.6409885128974,-256.2179745376862
-1418.853533061749,3438.7379992148185,-189.6753733435985
-1354.2851024559868,2815.2325207894646,-198.37865122136512
-1162.6498345510445,2368.362284776147,-245.02047080297555
-1034.4919009039786,2096.3019991536357,-269.65477507609637
-888.52360388104,1932.8516873754036,-247.29443795791633
-733.1004981313702,1765.9241433109166,-173.75964269143898
-573.1702467203378,1691.8213661138109,-100.47090494715322
-459.7818827020441,1614.1291878470224,-35.71647810414362
-362.70693865897124,1486.124211631903,13.264876384902085
-262.1598609107086,1361.8615939184126,50.51184655310428
-212.49764190625748,1203.0305965849707,71.41460131645364
-149.80446941616148,1098.5402762411222,123.72624698546397
-106.32275037856965,963.320807819184,183.70289548418677
-36.90342777604993,854.6659664615339,208.65739064818263
110.6218739324846,718.642961663769,270.1952246689746
261.73463924989676,616.2848679212576,206.0856663590523
420.8022107447498,471.44743617851157,157.93670621466046
519.2221604727405,354.37279805030266,132.33367153921066
587.3310457699623,291.73163108706854,110.0171822181887
651.4508012420144,209.77805876624538,87.7065052795807
736.9907154838809,162.97206487434548,120.54269296854687
808.4269347840496,128.19974201179812,188.44865473938606
821.8953465250622,167.2079660230558,235.61460845446715
794.7290868951172,217.57276949824865,219.33891797912645
760.0199864377744,233.28149775917367,214.84094976368078
679.232969464598,272.55892685065754,209.57411552364977
582.214109813239,292.44135357130114,184.50643186001338
520.2316795235886,304.4209796413658,171.7630383464282
487.0032070074899,331.0906374755906,96.60791401752894
452.902877129295,369.1260522196673,-6.071369937746326
415.98303192221607,496.2754865320981,-97.31957396256622
340.5790968373502,805.2444004833455,-225.07890054197918
139.12396180143068,1351.0526020608465,-371.2246281859759
-162.88946786109426,2199.7624061223764,-480.6513947168504
-552.5209934075348,2921.966216801864,-536.0199456491259
-910.1630016366446,3642.232566676694,-779.2844651333535
-1360.9438493267326,3985.581212748493,-853.9134158963561
-1956.7538354076062,4005.1393697134095,-490.0654147950626
-2403.3181565570303,4199.925560716453,-301.180321516522
-2463.012343664758,4440.33385508813,-295.035511617117
-2434.796796051659,4145.9417844014015,-309.3186766122989
-2317.41726277577,3610.54998393947,-368.5478731269088
-2231.2614399412646,3064.7264866187743,-326.17050674797207
-2156.067566396272,2700.636812775005,-304.1925632096588
-2067.6173820825666,2402.5431722351673,-246.9171429591145
-1915.740849321634,2041.6248158137591,-235.575859238374
-1783.2287274451523,1626.7736688879488,-216.492890028705
-1618.9422483722783,1211.9123248000083,-169.46153885373704
-1514.4213365420405,871.3801349084551,-84.32991898354689
-1359.302106223838,565.3480036505841,9.292378131166098
-1259.9511555933984,290.16840613257335,43.10585164148818
-1194.4853747202155,50.21215195811006,91.99135280651396
-1059.0364701503572,-183.39290175544147,47.712929491722456
-966.8092569837814,-401.43474071165997,-24.737805468738053
-966.2127229991895,-754.7113438330114,-156.97409410960933
-941.2674052811103,-1127.1637103394125,-249.53475447782884
-760.9581253537141,-1461.8855572494176,-312.4237124808166
-663.1897742858163,-1729.74461207446,-325.7534428168641
-640.1023795077831,-1806.1723422371554,-199.56254174463248
-638.6951711338736,-1696.6854124497154,-70.39814819535725
-681.8944287804704,-1509.2003895315936,89.23179679095308
-735.5845268261843,-1252.8335364268125,154.2810235911346
-769.3136800028553,-1097.857066378427,149.3282619447008
-766.3626212824972,-1013.1461814177115,105.91588360959148
-790.2209215175417,-943.638245476284,70.0027022479644
-833.1020277056897,-819.8538746666803,29.69658344082842
-953.5713011069021,-691.7428479654113,-27.484818974879293
-1049.4205462619755,-544.1246501098744,-45.117037928344544
-1123.8088439987152,-400.9636318212642,-109.5083438279127
-1195.525485257453,-264.85599057782224,-95.3431599985724
-1260.848505860819,-160.03120331611714,-112.37374638638067
-1334.6963540046806,-16.733543054967804,-161.0590772587989
-1560.4513263958643,367.752494480786,-197.13459744153204
-1943.7116650436185,943.8075183676384,-149.873810118644
-2269.133700091265,1474.0813631566336,20.070564361938075
-2260.374337821784,1952.2874783947627,285.4624158096802
-2143.596437111552,2478.8995222629546,434.5714387685907
-2359.4907537232393,3149.6484528355763,401.6019741705884
-2438.3046198243032,3785.1457939255506,441.4484049089139
-2121.4583981278015,4118.9091075953565,401.89769187235197
-1695.818653668684,3875.6456078273422,397.32018579229407
-1415.5904411802196,3192.5173224291684,399.8980283787023
-1221.721994768856,2773.2406071390337,412.06528223195494
-1009.65977168554,2492.5841138411183,365.16853359709995
-820.8521768391859,2134.8370748420716,329.9577327629721
-703.123900618458,1784.9112591965659,242.6353545808202
-602.9745121932567,1481.9025865101744,194.1376514915899
-528.7911774153254,1264.315540984944,156.73650023198547
-403.5873616372564,1100.6408916398568,135.6161380287866
-307.52091692881874,1003.2814467733631,149.1579693371335
-239.98409242707757,917.3265080328147,115.13717732355087
-167.3660220360674,812.3395858932461,120.50394375245371
-87.83284811836866,730.2656870592915,98.4246404225704
-5.836141801736577,624.6424620028247,41.13983878286673
81.9225729479486,538.7782780052313,34.894790779726
200.09993218887186,452.57248907629014,17.332728301713633
325.98389868099713,366.3075566069963,-0.11374118582798408
402.6461635726778,288.3726858815192,5.2221196840919175
486.4138110363886,221.8127495118109,-8.99704792156343
624.4578933682757,162.64269653755363,-14.578882696945444
759.1124390082241,111.34179357884702,-8.464225805958202
887.1765587636961,83.55218142790862,24.944807859972574
998.4092427077546,86.42115299312202,10.90280574916001
1007.1247571800768,113.64839165260308,34.48914767020339
972.5788113168106,152.56892006954465,29.91582242661868
918.466550758924,168.39185654632317,21.20265330158617
879.7397684224482,199.53704883930806,8.743628048314154
839.5425553068583,195.55505702762923,-38.940514854715936
811.2586867074893,203.15908082780564,-78.63602759352072
718.5827984072034,311.9577021714857,-107.8635415763793
602.9469798555062,521.3849785604667,-153.47340835045608
421.96468722754463,851.0775851080646,-220.09044882809116
198.52549035603394,1390.6175911243902,-221.33246317549828
-117.32752774902745,2179.051969836795,-162.00537390444242
-461.6816140068219,2982.7616974196085,-150.25110511744583
-789.5499482494023,3719.965533592002,-204.74473953898632
-1191.2834658114648,4229.721668459668,-232.10576496561012
-1501.50153212361,4309.850968475474,-197.77599893949514
-1808.6400554725622,4300.928451611917,-167.02543682093275
-2040.4725364930944,4179.9697144284755,-52.351312629695165
-2195.43880937935,3954.1025732538637,79.52664773393565
-2313.797270219698,3704.2721010742716,161.01319002921488
-2400.7280773760663,3404.1492252706075,270.6133083162956
-2438.5901403639373,2816.619334839115,299.50084891374735
-2316.4077437249216,2242.825021796434,275.79448639443643
-2151.1219427633296,1730.6725538282699,260.3743378217842
-1951.216776371136,1326.365272544651,221.56189932341832
-1746.6719012098936,976.304854359032,194.40991572045502
-1568.303141235794,719.3312701075291,170.47615648565005
-1412.847404567309,454.8668505554905,154.0740211999001
-1368.2858060601736,233.958589324591,151.56246016733544
-1381.6746799365737,32.77123176619947,140.26604395996597
-1311.263275430448,-211.7970968679417,110.74933845910684
-1212.799477905299,-658.1197452748901,43.086579005062895
-1079.736709273809,-1212.8606608780779,-4.068871633024529
-922.897217704313,-1674.9348656268962,-51.1808823604391
-845.051062289365,-1900.3227401814077,-92.42524205513607
-819.2767152901348,-1896.9678738407106,-127.37173244686005
-768.6121152483265,-1758.1844972544145,-138.8547567212045
-745.6960327940735,-1490.9474693192885,-88.39338612064265
-764.7851203010204,-1285.0769630811747,-14.806075469196923
-819.2899716009035,-1183.3908623230157,58.60227498687116
-838.5595488775474,-1067.3879459346465,34.374531567864665
-852.6122580085962,-951.0709569526801,49.47010446992603
-868.246546985974,-846.7356334732045,21.411593153625347
-921.787766464593,-768.9792130849985,16.422631581630835
-989.698826816497,-645.4946388420103,-79.20207206334479
-1070.2635456552441,-555.9574370452704,-88.56021169308582
-1149.2609606746444,-454.4385697460398,-54.764267104464835
-1221.1917423381074,-272.04295044689064,-56.457199961250794
-1503.4287957661386,119.94717870016775,-167.97173346657627
-1970.6423702283655,667.8406999332087,-314.18068351577756
-2146.5944027777073,893.5263316219097,-325.4261139124982
-2198.2634232892988,1204.4581992831397,-213.43578082219722
-2351.8224878016454,1927.100487934208,-14.093191864704055
-2736.632795093126,2740.334364946236,161.85649533734764
-2828.968098178277,3593.694074938945,322.4281482463431
-2515.1198421479303,4041.696195948668,506.1504183385764
-2076.203392595841,3829.666603784167,544.837431742746
-1847.5422289976702,3440.0534331295603,443.61224271285306
-1650.1965503000517,3116.21195821203,314.2235115967227
-1394.9003992188975,2839.297823415744,291.50933295263934
-1125.5117700743883,2574.518311553895,339.6093467188082
-904.4026247495324,2232.342339127021,344.0757037316515
-682.8580606017347,1855.5164097831575,368.28784549259944
-428.2155476130994,1582.3038448399811,325.9288340054963
-262.23022132940406,1344.5264182977878,274.2730698046734
-120.768050251615,1204.121692932857,272.9403007143112
-11.442337597446633,1090.647672752673,227.86578495204787
73.25427133628712,981.8429331117152,249.12482856021174
171.7813932382618,957.4808930674594,207.51122962479545
264.1014005802186,914.2449256371954,212.9646719318014
336.3095450536116,847.773704578016,198.57239730183093
412.017355569945,730.980508124589,184.40140109007666
492.124221829065,633.6027083662617,182.0060877057915
587.5349890125578,539.941774204239,175.90206645490562
671.7135821100989,454.17548296309144,177.45203509863208
790.4085493007298,383.54687890360117,171.6192583603983
890.7088557254518,340.3200889192538,185.0407631556138
957.8897992688635,300.6184578831711,131.2364568940464
1015.25495454615,296.20104724855076,120.33671029352531
1006.9748588967691,330.8734379222263,96.54805667582713
984.4268939954013,354.3666797530248,107.9053499411114
914.6008065955245,366.3717987284139,91.12000530252432
675.6843570434348,426.1455237007541,75.56576404786549
589.8426068025269,526.9414122049834,22.919855404241
497.03007652970183,674.3250753315353,-18.213865081347862
332.7170848352904,911.5284016458221,-29.32459096633407
46.770201852824364,1413.7141633483402,62.813600974848704
-287.6639831134995,2009.3711919972675,181.382021383449
-615.1835744112415,2627.9412439518087,272.5048818913696
-960.732768070646,3203.489468880811,296.78432492237414
-1439.920870021873,3678.9933361545486,264.4552421061219
-1965.6049721362547,3787.8990277005914,299.3846012654679
-2438.355605634952,3830.4823767545495,319.6310666741446
-2777.57440104419,3841.7910295564748,420.4769212728099
-2810.3888687778194,3540.3017340274205,424.92696282624553
-2739.345240219647,3153.0033191762736,442.9963341202144
-2725.6708458036132,2905.2836595575454,444.0364446574519
-2609.8412811714506,2698.7809292673855,383.6743434302234
-2412.852503148374,2266.706775504377,266.4192155323174
-2160.9010212457874,1822.8956881299937,181.42484946439407
-1977.37249723402,1437.7794659746194,110.90535503969247
-1772.4401299118456,1122.5749873810119,87.56578444218975
-1550.7334308861846,826.8909362524411,99.73344618192758
-1432.7930536931574,590.0108599776684,106.2238379059108
-1307.786043144193,360.636914746626,93.17167432303592
-1206.2121111694619,104.32716574977184,75.9345954020996
-1117.9250814498328,-125.29151137238509,3.463955581161763
-991.8381914313248,-421.04490320343854,-76.06664865168025
-862.2230833159133,-763.2524868329145,-155.38741568221565
-710.0600102991339,-1128.948213712124,-246.06567992127793
-579.354825552049,-1432.2729984245386,-301.9542861221722
-443.65303136137214,-1631.056476982456,-346.3455920217404
-402.0006832098627,-1697.2156648804637,-353.34798325625985
-445.1091861135047,-1541.5967736179023,-295.6493807773297
-528.6157862266932,-1315.637857984123,-195.6223582976858
-582.3844024208064,-1186.7355315015832,-106.59603432364774
-619.0105693585476,-1166.657319268048,-56.19288951884691
-616.2767101915538,-1112.8978805198515,-99.50411200562884
-628.3032432074154,-1004.7916464847834,-135.37038642145893
-692.5881927059701,-849.5021235590135,-132.9322449562287
-806.613879357375,-662.8430707734038,-127.420678825083
-911.9230318202444,-487.57526780297053,-90.34369534958422
-1032.075173479221,-308.18271275104144,-37.80393916373074
-1088.3533112734726,-129.7068825745795,-31.399713459744156
-1187.9795852814163,106.78570153926164,-65.0867523568191
-1457.2866371288872,518.3370467998757,-141.1521773490438
-1824.3436851524223,1027.8229568711029,-167.99212779083584
-2047.7533102537568,1383.000311013445,-19.476987554363625
-2086.9512014806282,1675.760835759408,234.04832435133306
-2301.876787689986,1974.13999683888,528.0936915256484
-2497.7642722030464,2343.695349584211,578.8572040401158
-2455.446049364462,2842.5303238108836,585.6576914644655
-2248.657798534668,3262.5412347743627,575.5645403884099
-2032.2434266543623,3446.406265136413,558.562811969429
-1830.5129682409388,3301.3108451917838,518.9029892980784
-1471.664635731876,2953.954714402982,497.9784126077713
-1124.8081658874337,2544.793583945588,477.0813682552146
-918.6511193934729,2191.26817006827,497.0606680160912
-772.3147048176494,1918.7898007984381,441.30258549045806
-597.69544135867,1658.0075764914625,421.2498661622471
-451.4966884715984,1424.1050715585855,353.58659685009667
-329.1083091575615,1214.380038035415,371.8252410354199
-249.92836493603832,1062.7074485170779,353.8996497274809
-171.59376545507388,945.5726471323031,304.44851197911623
-69.92071706444096,839.9035348462523,259.2322556632489
46.3480393406515,733.9101528044746,190.68897125929857
179.93912294208522,628.275710869665,177.34700432869533
