acc_x[mg],acc_y[mg],acc_z[mg]
-917.9628109497129,316.30271295498466,236.5221558840175
-894.5144366322853,323.9301902280596,244.69722076346156
-929.1684724141273,308.756812978948,248.15405872545674
-913.6178001662139,308.67217653327083,252.31144172576776
-913.5097102476382,324.14738978142384,252.26045591511885
-903.3115284016459,304.4067036143841,217.15876471577963
-886.9715958048876,319.96757302442734,240.89877787011878
-894.4603916729976,331.66677713592316,244.6717278581371
-886.8349538323486,320.0012236594556,244.8246852900838
-898.1221925938013,300.8499334635172,256.49431763140325
-899.1317116446494,312.18203973834085,225.04423019073792
-902.2489841077229,320.120530456374,244.59422942595077
-914.5722545415612,308.43254322322105,224.82601092116067
-913.9726614083303,316.3067918198366,240.5061871281223
-917.8802139364616,308.59875696593645,240.47355620930696
-914.4631449067725,304.598410262424,228.7651746518944
-886.8889987916364,312.2636170353791,244.85017819540823
-887.7618758699456,304.32104745249404,221.31614771609065
-890.879148333019,292.95019196157716,244.8562964926861
-879.5908898553533,312.1014821575156,233.18666415136667
-902.8210449032035,296.8057389628467,232.8899267333901
-898.7493180647826,308.41622776381337,236.8362284776147
-902.384606364049,300.77651389618273,244.6574518311554
-887.2163276960024,304.45870914124606,237.02283654458964
-898.6942533892818,296.84448817893986,240.8008851136729
-907.329210280779,300.53280172128103,213.1869700662306
-891.2880545344233,312.1565468330164,229.08638525898246
-906.2656462706431,296.93830207053384,244.61156460157142
-891.3155868721735,308.2887632371911,229.0986218535382
-895.3597813728442,300.54605803204976,225.1400835147579
-894.9784075091903,316.08959226647227,232.942951976465
-907.138523348952,308.30507869659874,217.08840429708414
-907.1109910112018,312.17388200863707,217.07514798631541
-899.2948662387258,308.2795857912743,221.13055936532868
-910.6912146349672,312.2717747650829,224.87087843453168
-903.3390607393962,300.5379003023459,217.17100131033536
-910.1731987987745,308.5396134255837,240.58980385758645
-910.2282634742752,320.1113530104572,236.62514722152827
-906.8111944445862,316.11100630694483,224.91574594790274
-902.4661836610873,308.480469885231,240.705031789653
-910.0100442046978,312.44308708886325,244.50347468299574
-914.1093033808692,316.2731411848083,236.58027970815724
-902.2214517699725,304.67998755946223,248.5711226565647
-909.7642925973703,308.6426047630944,252.3695655499075
-893.9148434990544,312.49509261572507,264.3675465118058
-909.9009345699094,308.6079344118532,248.44263841372947
-913.2904712618479,316.47810414361686,260.13878337658633
-921.4614572764401,308.69766943859526,248.26928665752322
-920.6701574951692,305.03382908536554,271.841046636721
-905.7476304344502,312.5154869399846,256.3413601994565
-901.5117292857399,308.7201031952808,268.191482310473
-906.1565366358543,293.1031493935238,248.55072833230517
-909.6551829625815,304.8074520860845,256.3087292806412
-917.1439788306915,297.19832970484316,264.0708090938292
-920.6426251574188,308.90263239740386,271.8288100421653
-917.4162430595566,297.13000871857366,256.2179745376862
-913.3180035995983,293.29995462262855,264.1411695125247
-909.0555898293507,293.37235447374997,275.9790550289855
-916.4893210219598,293.50083871658524,283.716661653062
-905.2561272197948,304.9145222884472,272.07252221706705
-896.9230063273392,316.59843065674823,287.85670947775236
-900.8305588554706,308.8903958028481,287.82407855893706
-909.5460733277931,281.6639729163374,264.2370228365446
-916.6534953322491,308.9067112622557,275.8128412862701
-916.8166499263256,305.00425731518925,271.8991704608608
-908.9464801945619,308.84756772190303,275.9280692183366
-921.0790636965734,304.9308377478548,260.06128494440003
-924.4696201047251,312.8010074796185,271.7584496234698
-924.3054457944355,297.39411521773496,279.66125027404877
-928.7860788342606,285.6816547954705,263.9351868375031
-921.6786568298044,297.0565891512393,244.3811087374384
-925.4505871016098,308.69257085753037,244.2852554134185
-928.8401237935484,297.253394380344,259.97154991765797
-913.5362228691755,300.9692402604355,256.2628420510572
-916.980824236615,301.1007836519097,267.9854996354515
-905.938317366277,324.0535758898299,248.4497764272203
-910.1191538394866,316.27722004966023,240.56431095226202
-902.1939194322222,327.85813708045055,244.56873652062635
-918.0719205845014,320.1368459157817,232.58299215328378
-909.6562026787947,324.1167982950345,252.3185797392586
-917.8537013149243,312.46756027797466,240.46131961475123
-901.9206354871441,308.61711185777,256.411720618152
-901.8125455685683,324.09232510592307,256.3607348075031
-914.9546481214279,312.1983551977485,213.03299291807093
-894.7051235641122,316.15791325274176,240.79578653260802
-910.7462793104679,304.53416814100643,224.89637133985616
-917.3897304380192,300.99881203061193,256.20573794313043
-917.8802139364616,308.59875696593645,240.47355620930696
-922.1161150851719,312.3951604268533,228.6234340982905
-906.1840689736048,308.5436922904356,244.57383510169123
-914.8455384866393,308.3642222369515,216.97215664880466
-890.4702421316149,312.36252950803794,252.6459086436245
-898.6677407677445,300.71329149097807,240.78864851911717
-913.9451290705798,300.8662489229248,244.48410007494917
-909.8458698944085,297.0361948269797,252.40729504978768
-899.0491146313982,304.4791034655056,228.99563051602743
-894.8417655366512,316.12426261771355,236.86885939643003
-902.8210449032035,316.1150851717967,228.90079690822046
-921.2972829661508,293.29077717671174,256.1731070243152
-913.6728648417146,300.9345699091943,252.3369346310922
-898.3944568226664,300.7816124772476,248.6414830752602
-906.0474270010657,308.57836264167685,248.50076223786922
-898.3404118633786,308.51921910132415,248.6159901699357
-891.0698352648459,304.48828091142235,236.96471272044994
-898.5321185114185,320.05628833495643,240.72542611391253
-882.7632269939277,312.3023662514723,252.76113657569104
-902.2214517699725,304.67998755946223,248.5711226565647
-909.9549795291971,300.8703277877767,248.46813131905395
-909.9825118669476,297.0015244757384,248.48036791360968
-902.1123421351839,300.84483488245223,252.51028638729844
-914.026706367618,289.25983898681,244.52182957482938
-898.6126760922435,308.4508981150546,240.7631556137927
-921.652144208267,300.9253924632775,244.36785242666969
-882.8723366287164,316.1375189284822,248.82197284495726
-894.760188239613,308.4203066286653,240.82127943793245
-902.1939194322222,308.5487908715005,248.55786634579601
-890.3060678213253,316.26498345510447,256.5595794690338
-902.6028256336263,308.4457995339897,236.77912436968796
-894.4328593352471,316.2262342390113,248.64862108875104
-913.8095068142538,320.2102654831161,244.42087766974453
-908.8924352352741,316.5851743459795,275.9035960292251
-909.7102476380825,316.380211387171,252.34407264458304
-928.8686758475118,312.69393727725577,255.99363697083106
-917.2806208032306,316.473005562552,256.1547521324816
-916.7085600077498,320.47947056334226,271.84818465021186
-916.3802113871711,308.9750322485253,283.6656758424131
-924.9601036031673,301.0926259222059,260.01641743102897
-908.5100416554075,312.81834265523906,287.69559431610185
-916.4077437249215,324.41659486165,279.6887826117992
-897.7143061086101,339.571617218928,260.29479995717196
-905.6385207996616,308.68135397918763,260.28052393019027
-913.2904712618479,316.47810414361686,260.13878337658633
-916.9257595611143,308.8383902759862,267.960006730127
-909.7918249351206,304.7738014510562,252.38180214446325
-901.7299485553172,316.3883691168748,260.31315484900557
-897.7948636894354,308.65586107386315,264.32267899843475
-917.0899338714037,304.9359363289197,264.04633590471775
-909.5195607062556,324.1514686462758,256.2455068754366
-913.6993774632522,297.065766597156,252.34917122564792
-898.8033630240704,281.3692749307868,240.85187092432182
-890.5242870909027,304.62492288396146,252.67140154894898
-898.2037698908395,308.5528697363524,252.54291730611374
-906.1840689736048,308.5436922904356,244.57383510169123
-894.4053269974967,300.78569134209954,252.62551431936495
-894.4603916729976,312.35743092697305,248.66085768330677
-898.503566457455,304.61574543804466,244.70231934452642
-898.4770538359176,308.48454875008287,244.6900827499707
-905.8842724069892,312.4808165887434,252.41443306327852
-914.1908806779074,304.66673124869357,236.61800920803742
-886.2343409829045,308.5661260471211,264.496030754641
-901.921655203357,327.9264580667201,252.42157107676937
-906.9468167009122,296.7669897467535,224.97896835310738
-909.9284669076596,304.7391310998149,248.45487500828523
-902.9852192134929,312.2116115085172,224.98610636659822
-891.1514125618842,312.19121718425765,233.01331239516043
-895.223139400305,319.89007459224104,225.07686110955325
-886.9440634671372,304.52703012751556,244.8756711007327
-914.1908806779074,304.66673124869357,236.61800920803742
-910.6371696756795,300.70003518020934,228.83553507058988
-882.4899430488497,312.3706872377418,260.61397113183403
-891.4246965069622,312.12289619798815,225.15945812280447
-886.7533765353104,312.29828738662036,248.77710533158626
-883.7441939908125,308.19494934559714,225.28794236563965
-883.7727460447759,323.6354922425089,221.31104913502574
-895.3597813728442,319.85540424099975,221.14993397337525
-894.7051235641122,316.15791325274176,240.79578653260802
-899.7313047778804,323.61713735067536,205.3739044423937
-899.4315082112649,327.55426164898313,213.21348268776802
-895.496423345383,319.8217536059715,217.22402655341023
-903.7489866570135,319.7442551737852,201.40210979284467
-902.6038453498393,327.75514574293976,232.7889748283053
-906.4298205809324,331.6535208251544,232.7186144096098
-914.2459453534083,335.5478170425171,228.66320303059663
-910.4189504061021,331.6494419603025,228.7335634492921
-907.1109910112018,331.48322821758705,213.08601816114577
-903.2574834423581,331.45263673119774,213.14312226907253
-907.2201006459902,335.3173611783841,209.14685443041202
-910.609637337929,323.8781847011977,224.83314893465152
-913.6453325039643,324.1127194301826,248.33454849515383
-917.7986366394233,320.2051669020512,240.4358267094268
-903.0127515512434,327.653174121642,221.00921313598428
-898.3954765388793,320.09095868619767,244.65133353387756
-911.0460758770835,319.90639005164866,213.0656238368862
-902.6038453498393,327.75514574293976,232.7889748283053
-906.4288008647195,312.3441746162043,236.70774423477948
-898.1221925938013,320.15927967246716,252.50518780623358
-901.9491875411074,324.0576547546818,252.4338076713251
-906.3747559054317,320.0817812402809,236.68327104566805
-911.1551855118722,323.7405230124457,209.12646010615248
-917.9352786119624,320.1715162670229,236.50991928946178
-913.891084111292,327.9132017559514,240.46845762824208
-932.96691530747,316.5239913732009,248.07044199599252
-925.7514033844382,324.06479276817265,232.45450791044854
-933.1310896177596,331.9308836350844,240.16662162920065
-937.3384387125064,320.28572448287645,232.29339274879806
-925.6422937496496,320.2306598073757,236.39367164118227
-921.598099248979,327.97234529630407,240.3532296961756
-933.5950604946645,324.09028567349714,228.41235284220403
-933.1310896177596,331.9308836350844,240.16662162920065
-944.2001091096349,324.419654010289,255.72443189060488
-925.7238710466879,327.9335960802109,232.4422713158928
-925.4781194393601,324.13311375444215,240.30734246659156
-924.6603070365518,324.3390964294637,263.8668658512336
-921.3798799794018,339.6134255836601,244.2414076162604
-918.1534978815396,327.83978218861694,228.63159182799427
-929.8496428443965,308.5855006551677,228.52044276077967
-914.3275226504466,323.9414071064023,228.70195224668976
-925.8329806814763,312.4594025482708,232.49223741032873
-929.359159345954,320.29490192879325,240.26247495322056
-922.1976923822102,320.0980966996885,224.672033773001
-921.4614572764401,328.0070156475453,244.27913711614062
-933.5665084407011,308.6497427765853,232.38924607281797
-953.434659134363,320.2337189560146,212.429320919988
-941.0828366465614,316.48116329225576,236.17545237160502
-922.1976923822102,320.0980966996885,224.672033773001
-922.0610504096711,320.1327670509298,228.598960909179
-914.2184130156578,320.10727414560534,232.64111597742348
-918.0984332060389,316.2680426037434,232.5952287478395
-910.8278566075062,312.2371044138416,220.9439512983537
-914.3815676097342,316.20380048232585,228.72642543580125
-921.4063926009392,316.4352760626718,248.2437937521988
-913.8360194357911,316.34146217107786,244.43311426430026
-914.3540352719839,320.07260379436406,228.7141888412455
-925.6963387089374,312.4930531832991,236.41916454650675
-922.1976923822102,320.0980966996885,224.672033773001
-925.5607164526115,331.8370697434904,236.3559421413021
-917.9628109497129,335.6120591639347,232.53200634263487
-921.7887861808059,320.20108803719927,236.45179546532202
-925.9420903162651,335.6028817180179,224.56394385442536
-929.823130222859,331.76365017615603,224.5180566248413
-911.3734047814494,331.40980865025267,201.248132644685
-925.5066714933234,339.57467636756695,236.33044923597768
-907.1660556867025,343.0549678024606,209.1213615250876
-909.9835315831605,335.6212366098515,240.50108854705738
-907.4658522533181,339.11784350415286,201.2807635635003
-899.7863694533813,335.18989665176184,201.40924780633551
-926.3509965176693,335.49989038050717,212.78418216210432
-899.0226020098607,346.96659919544396,221.0041145549194
-898.6412281462069,343.2007872209165,232.79611284179617
-915.0362254184662,339.2116573957468,205.0914430513988
-895.2506717380554,335.3306174891528,221.0999678789393
-906.7571494852984,343.1569394237584,220.90112321740864
-906.8387267823366,350.86089541280666,216.9487031759062
-915.1188224317174,327.60524745963204,205.129172551279
-915.0086930807157,323.771114498835,209.06833628201275
-907.41180729403,327.54610391927935,205.2454201995585
-914.7904738111386,316.101828861028,216.9476834596932
-922.6616632591151,331.5678646632643,208.92761544462178
-911.2642951466609,327.57567568945564,205.18729637541875
-919.4352811612529,319.7952409844341,193.31779965635565
-903.7754992785508,315.8754518617469,201.41434638740043
-903.4206380364345,308.24083657518116,213.2196009850459
-918.9988426220983,304.4566697088201,209.07445457929063
-915.2269123502931,312.13003421147897,205.1801583619279
-915.6358185516971,312.0280625901812,193.40039666960686
-911.482514416238,315.9345954020996,201.2991184553339
-911.6466887265276,312.0321414550331,197.38442791371165
-922.7707728939037,316.0926514151112,208.97860125527072
-930.8866942329951,316.04982333416615,197.08361163088315
-918.9162456088471,296.75373343598477,213.0258549045801
-930.4227233560902,304.5800553705904,212.8270102430494
-926.3234641799188,300.7500012746453,220.75122493410083
-903.7754992785508,296.56610565279686,205.40449592878306
-899.3764435357641,315.9825220641096,217.1781393238262
-919.2711068509635,304.3883487225506,201.2206003069346
-899.7863694533813,315.87953072659883,205.39837763150516
-907.1650359704895,304.43627538456053,217.1006408916399
-903.3941254148972,312.10963988721943,213.20634467427718
-895.223139400305,319.89007459224104,225.07686110955325
-892.1609316127323,304.21397725013134,205.55235477966482
-899.567130467591,308.2112648050048,213.27772480918566
-919.1079522568871,308.2918223858301,205.13529084855688
-899.2132889416877,300.57664951843907,225.08195969061813
-914.7629414733881,300.66128596411625,220.9245766903071
-923.0430371227687,296.7149842198916,205.11489652429728
-906.8387267823366,312.24220299490656,224.92900225867143
-899.7037724401299,308.1765944537636,209.35079767300763
-919.5433710798286,304.320027736281,193.3677657507916
-922.8788628124794,300.61743816695815,209.02856734970658
-898.96753733436,316.0855134016204,228.95790101614722
-910.5545726624281,292.99607919116113,232.78693539587934
-914.9811607429652,308.32955188571026,213.04624922883963
-922.3068020169987,304.62390316774844,224.72301958364991
-918.7255586770203,304.52499069508957,216.92728913543365
-922.987972447268,304.45259084396815,205.08940361897285
-918.370697434904,296.8903754085239,228.73254373307913
-914.1908806779074,304.66673124869357,236.61800920803742
-918.5073394074429,316.1660709824456,220.81546705551847
-922.3608469762867,316.195642752622,220.7583629475917
-913.6453325039643,304.80337322123256,252.3236783203235
-910.3373731090638,323.9465056874672,232.68598349079454
-910.5821050001786,308.4366220880729,228.81004216526546
-903.2574834423581,312.1432905222477,217.13327181045517
-906.8111944445862,316.11100630694483,224.91574594790274
-906.6755721882602,335.45400315092314,224.8525235426981
-914.2184130156578,320.10727414560534,232.64111597742348
-903.0392641727809,323.78437080960373,221.02144973054
-913.6728648417146,339.55326232709444,244.3576552645399
-909.4655157469678,351.19842147930234,252.22986442872948
-909.9559992454101,320.1796739967267,244.47798177767132
-929.7945781688957,297.0137610702942,232.48509939683788
-899.0766469691486,319.9196463624174,225.0187372854135
-914.8730708243897,323.80476513386327,212.99526341819072
-906.8111944445862,335.4203525158949,220.92661612273307
-923.0705694605192,331.4648733257535,197.14785375230076
-914.5732742577742,347.05123564112114,216.84571183839537
-921.7072088837677,351.1168441822641,232.42391642405923
-929.223537089628,339.63789877277156,240.19925254801592
-918.5358914614063,331.6066138793574,216.83857382490453
-914.6823838925628,331.5770421091811,216.89669764904428
-915.3095093635442,339.1433364094773,197.2386084952558
-911.5916240510267,319.76974807910966,197.3599547246002
-918.5624040829439,327.7378105673192,216.85183013567328
-918.0168559090007,327.87445253985817,232.5574992479593
-926.40606119317,327.7633034726436,212.80967506742874
-926.1603095858424,323.9628211468749,220.6747462181275
-937.9665838997007,327.85201878317264,212.63530359500956
-941.92818138712,312.407397021409,212.62816558151872
-941.8741364278322,320.1450036454855,212.60369239240723
-942.1464006566973,320.075662943003,204.7498381200512
-937.8299419271618,327.8866891344139,216.56223073118753
-933.15862195551,347.3714265319962,236.1897283985867
-918.1259655437893,331.7085855006552,228.61833551722557
-907.602494225857,319.7738269439615,201.34398596870494
-899.1317116446494,312.18203973834085,225.04423019073792
-895.2782040758059,312.1524679681645,225.10235401487768
-914.9546481214279,312.1983551977485,213.03299291807093
-903.2034384830703,319.88089714632423,217.10777890513074
-907.2741456052782,308.2704083453575,213.16147716090612
-906.8387267823366,312.24220299490656,224.92900225867143
-915.1178027155044,308.295901250682,209.11932209266163
-896.096016478614,331.256851218306,197.552681088853
-903.3941254148972,312.10963988721943,213.20634467427718
-899.1592439823999,327.6225826352527,221.06733696012404
-888.8805045555822,319.4883064043277,185.92689654469163
-903.3941254148972,312.10963988721943,213.20634467427718
-899.6221951430917,319.78300438987833,209.31306817312745
-911.2102501873729,316.0039361045821,209.1519530114769
-900.2493206140733,327.3492986901746,189.65497901933892
-919.244594229426,327.5664982435389,197.21821417099625
-918.5624040829439,327.7378105673192,216.85183013567328
-922.4434439895379,323.89857902545725,216.80594290608926
-942.6644164928902,304.4984780735522,193.02106223837907
-922.9614598257306,308.3213941560064,205.07716702441712
-926.1052449103415,312.3910815620013,224.6394028541857
-919.5443907960415,323.62937394523107,189.37863592562192
-922.9063951502299,316.0590007800829,205.0516741190927
-911.3458724436991,315.96926575334084,205.22502587529894
-914.435612569022,308.4672135744623,228.7519183411257
-915.1718476747922,300.55829462660546,209.14481499798612
-910.5280600408908,296.8648825031994,232.7746988013236
-900.1942559385724,296.468212896351,197.60876548056677
-887.7343435321951,288.8805045555822,225.29304094670454
-895.7686875742481,300.4440864107519,213.36032182243684
-884.8352903386989,288.611299475356,197.8657339662372
-888.3074240438888,304.18440547995493,205.6104786038046
-880.2180153263348,300.35944996507476,217.51770482274785
-884.3172745025062,284.8791381358568,213.58465938929197
-881.2550667149334,307.8227529278602,186.0808736928513
-911.482514416238,296.6252491931496,205.28824828050355
-889.261878419236,303.94477216990515,178.12402808298452
-908.2561323183759,323.4713179322195,181.69813340947215
-915.6093059301598,315.8968659022195,193.38816007505113
-908.529416263454,323.40299694594995,173.84529885332913
-919.244594229426,327.5664982435389,197.21821417099625
-926.7884547730367,350.8384616561211,197.02752723916936
-934.0580116553564,335.5600536370728,212.66793451382483
-934.7126694640882,339.2575446253308,193.02310167080503
-916.1273217663526,338.93735373445577,173.67908511061373
-934.9308887336656,346.9268302631378,185.14477420933756
-919.6269878092927,350.64165642701636,181.43708605894983
-923.5896050129251,354.50638087420276,177.43979850407632
-934.222185965646,350.96592618274343,204.76513386324586
-939.0576802475871,346.88808104704464,177.2338158290548
-930.2045040865128,335.5304818668965,212.72605833796456
-915.7734802404492,350.61208465684007,181.49419016687656
-934.5219825322613,327.71945567548556,200.91366572682827
-922.7167279346158,343.1396042481378,204.96295880856357
-927.0607190019018,331.4607944609016,193.163822508196
-918.5899364206942,343.17835346423095,212.87391718884638
-927.1422962989401,339.1637307337368,189.21242218290652
-923.451943324173,335.230685300281,185.35585546542399
-926.3244838961318,339.3686936925454,212.7709258513356
-934.3588279381848,350.9322755477151,200.83820672706787
-922.5260410027889,350.9108615072426,208.86439303941717
-930.4777880315909,354.771507089577,200.8830742404389
-926.9516093671132,346.93600770905465,193.1128366975471
-919.1354845946374,343.0417114916919,197.1682480765603
-919.2721265671764,343.00704114045067,193.2413209403823
-931.0498488270716,331.4556958798367,189.17979126409122
-930.1229267894746,327.8265258778482,216.67847837946704
-926.2969515583814,343.2374970045837,212.7586892567799
-923.0430371227687,335.33367663779177,197.13561715774503
-931.7045066358035,335.15420658430764,169.53393870485846
-930.7235396389186,339.2616234901827,197.00713291490982
-914.6548515548124,354.75519163016935,212.89431151310592
-933.8673247235296,343.3313108961776,216.56936874467837
-930.8051169359569,346.96557947923094,193.05573258962033
-918.3727368673299,354.81841403537396,216.76311482514416
-941.9832460626209,343.28848281523256,204.67437912029084
-926.2153742613431,335.5345607317484,216.71008958206934
-926.7884547730367,350.8384616561211,197.02752723916936
-927.0882513396523,346.90133735781336,189.1869292775821
-930.4502556938404,339.3299444764522,204.8599674710528
-922.9349472041932,350.8088898859448,197.08463134709612
-914.6008065955245,343.18243232908287,216.85896814916413
-922.062070125884,339.4421132598798,224.60881136779636
-919.6810327685806,342.90506951915285,181.4615592480613
-915.227932066506,331.439380420429,201.19000882054527
-911.2653148628738,346.88502189840574,201.19816655024908
-900.2503403302862,346.6586448991246,185.66482947795632
-910.8564086614696,346.98801323591647,212.97690852635714
-914.8730708243897,343.1141113428133,209.0051138768081
-902.7404873223783,347.03084131686154,224.87291786695764
-914.6008065955245,343.18243232908287,216.85896814916413
-918.645001096195,335.4407468401544,212.8994100941708
-923.3163210678468,354.57470186047226,185.29263306021934
-930.750052260456,335.39282017814446,197.0203892256785
-918.9988426220983,343.07536212672017,201.09517521273833
-927.0331866641515,335.32959777293985,193.15158591364025
-938.7028190054708,319.94411955152884,193.02820025186992
-915.0362254184662,339.2116573957468,205.0914430513988
-931.676974298053,319.71366368739587,173.51083193547237
-915.5277286331216,327.50225612212125,193.35043057517095
-926.8424997323245,343.1008550320446,197.05200042828085
-934.7402018018387,335.38874131329254,193.03533826536076
-929.9862848169356,327.8611962290895,220.60438579943207
-923.3703660271348,308.21840281849563,193.2974053320961
-919.9532969974458,323.5263826077203,177.59887423330088
-919.3261715264643,315.9600883074241,197.2569633870894
-907.8747584547222,319.705505957692,193.4911514125619
-911.6732013480649,308.16333814299486,197.39768422448034
-915.9091024967752,311.9597416039117,185.54756211346387
-904.5933116813591,315.67048890293836,177.85482300275834
-895.68711027721,312.04947663065377,213.32259232255666
-900.6582268154774,307.93696114371375,181.86434715218758
-892.4607281793478,319.58619916077356,193.7226269929079
-900.8489137473043,300.16570388460894,177.963932637547
-889.4800976888133,311.6140578077122,170.24570062151705
-908.0114004272613,319.67185532266376,189.5642242763839
-911.6466887265276,312.0321414550331,197.38442791371165
-915.1178027155044,308.295901250682,209.11932209266163
-919.5984357553293,315.8917673211546,189.40310911473338
-907.6840715228952,327.4777829330098,197.39258564341546
-915.7449281864858,315.8621955509782,189.46123293887314
-916.6993825618332,315.6225622409284,161.97580213426605
-930.8316295574942,323.7874299582426,197.0581187255587
-930.5318329908788,327.72455425655045,204.898716687146
-934.6586245048004,327.68580504045724,196.9877583068632
-927.0596992856889,312.15144825195154,197.1539720495786
-941.6018721989672,320.213324631755,220.45652694855025
-927.0872316234394,327.5919911488633,193.1760591027517
-926.9516093671132,327.6256417838916,197.10298623892973
-919.1354845946374,323.73236528274185,201.15839761794297
-922.6891955968654,327.699061351226,208.9408717553905
-910.8013439859689,335.41525393483,216.94156516241534
-919.2711068509635,323.69769493150056,197.23147048176494
-915.0086930807157,323.771114498835,209.06833628201275
-919.0263749598488,319.89721260573185,205.0975613486767
-911.2102501873729,316.0039361045821,209.1519530114769
-926.6242804627474,316.12222318528757,208.92047743113093
-933.3768412250871,335.73136596085317,232.30155047850184
-917.907746274212,324.0403195790612,236.49666297869308
-918.0719205845014,320.1368459157817,232.58299215328378
-918.5073394074429,316.1660709824456,220.81546705551847
-914.1908806779074,323.97607745764356,232.62785966665479
-903.4491900903979,323.68137947209294,209.24270775443196
-905.6109884619111,312.5501572912259,260.26726761942155
-914.026706367618,308.56918519576004,240.53168003344672
-906.9478364171251,335.38568216465364,216.99968898655507
-921.7612538430556,324.0698913492376,236.43853915455333
-925.2333875482454,320.3336511448864,248.1734333335033
-926.869012353862,319.92270551105634,201.05438656421921
-929.2775820489159,312.590945939745,244.214894994723
-933.3493088873367,320.28980334772837,236.27844370911578
-906.8927717416244,323.81394257978013,220.96434562261328
-918.6715137177325,312.2625973191661,216.90179623010917
-914.6273192170619,320.00428280809456,220.86135428510246
-907.2741456052782,308.2704083453575,213.16147716090612
-903.9396735888404,331.2823441236304,193.5105260206085
-906.9743490386627,312.20753264366533,221.00207512249344
-911.0460758770835,319.90639005164866,213.0656238368862
-922.7707728939037,316.0926514151112,208.97860125527072
-919.0528875813861,316.0284092936936,205.10979794323242
-911.3193598221616,319.83806906537916,205.21278928074318
-926.2143545451302,316.2252145227983,220.70023912345198
-930.8866942329951,316.04982333416615,197.08361163088315
-926.5151708279586,331.59743643344063,208.87051133669502
-926.7874350568238,312.21976923822103,205.00680660572164
-907.2201006459902,335.3173611783841,209.14685443041202
-922.9063951502299,316.0590007800829,205.0516741190927
-934.030479317606,320.11951074016105,216.6458474606517
-930.4777880315909,335.4621608806269,204.87322378182154
-914.7914935273515,335.41117506997807,212.95753391831056
-918.5073394074429,316.1660709824456,220.81546705551847
-914.8455384866393,327.67356844590154,212.983026823635
-918.8081556902714,312.22894668413784,212.97588881014414
-926.4050414769571,308.45395726369355,216.7988048925984
-906.8387267823366,312.24220299490656,224.92900225867143
-903.3125481178589,323.71604982333423,213.16861517439696
-918.7530910147707,300.65618738305136,216.93952572998938
-914.4090999474847,312.33601688650054,228.73968174656997
-914.2184130156578,320.10727414560534,232.64111597742348
-903.0117318350304,308.34382791269195,224.99936267736692
-911.0736082148339,316.03758673961045,213.07888014765493
-899.1582242661867,308.3132364263026,225.0564667852937
-909.9284669076596,304.7391310998149,248.45487500828523
-899.2948662387258,327.58893200022436,217.14040982394604
-891.3155868721735,308.2887632371911,229.0986218535382
-914.6273192170619,300.6949365991445,224.85048411027213
-905.938317366277,304.7442296808798,252.43992596860295
-913.4546455721373,312.57463048033736,256.22511255117706
-899.1857566039372,304.44443311426437,225.0697230960624
-909.9825118669476,297.0015244757384,248.48036791360968
-898.9134923750721,323.8231200256969,228.9324081108228
-913.891084111292,308.60385554700133,244.45860716962474
-922.0610504096711,300.8234208419797,232.58809073434867
-909.8468896106214,316.3455410359297,248.41714550840504
-910.7727919320055,300.6653648289681,224.9086079344119
-898.4219891604168,316.2221553741594,244.66458984464626
-918.1534978815396,308.5304359796669,232.62072165316394
-902.5487806743384,316.18340615806625,236.75363146436348
-925.8329806814763,312.4594025482708,232.49223741032873
-906.1024916765665,320.1501022265504,244.53610560181107
-921.5165219519408,320.26940902346877,244.30463002146504
-918.0168559090007,308.5651063309082,236.54764878934193
-909.5185409900427,304.8421224373257,260.23463670060625
-918.5889167044812,304.55966104633086,220.85421627161165
-914.026706367618,308.56918519576004,240.53168003344672
-902.7394676061654,308.41214889896145,232.85219723350994
-897.9315056619744,308.6211907226219,260.39575186225676
-902.2754967292603,296.9423809353857,248.59661556188914
-890.9331932923068,304.5219315464507,240.89163985662793
-915.4716442414077,296.62117032829764,201.3042170363988
-918.5073394074429,296.8557050572826,224.8056165969011
-910.5555923786412,312.3054254001112,228.79780557070967
-914.0542387053684,304.70038188372183,240.54391662800245
-910.9910112015828,308.33465046677514,217.0302804729444
-914.6538318385994,296.82613328710625,224.86374042104083
-903.6123446844744,300.46957931607636,209.3181667541923
-910.7187469727177,308.40297145304464,224.88311502908743
-882.9263815880041,308.3999123044057,248.84746575028174
-906.8652394038739,308.3733996828683,224.94123885322716
-898.5586311329557,296.8781388139681,244.7278122498509
-903.0933091320687,296.73741797657715,225.03709217724708
-895.1415621032668,312.1871383194058,229.0282614348427
-906.9468167009122,296.7669897467535,224.97896835310738
-906.7010650935846,292.9665074209848,232.8450592200191
-902.521248336588,300.74286326115447,240.73052469497742
-898.3404118633786,308.51921910132415,248.6159901699357
-902.9026222002418,304.50867523568195,228.93852640810064
-894.6510786048243,304.58617366786825,244.7604431686662
-910.9910112015828,308.33465046677514,217.0302804729444
-906.7561297690853,304.5382470058583,228.8804025839609
-917.7445916801355,308.6334273171777,244.400483345485
-898.0946602560508,304.7187367755554,256.4820810368475
-902.8210449032035,316.1150851717967,228.90079690822046
-899.1317116446494,312.18203973834085,225.04423019073792
-914.2173932994449,300.79792793665524,236.63024580259315
-918.370697434904,296.8903754085239,228.73254373307913
-903.0392641727809,304.4750246006537,225.01159927192265
-902.1663870944717,312.41759418353877,248.54562975124023
-903.3115284016459,304.4067036143841,217.15876471577963
-906.2656462706431,316.2476482794838,240.62243477640178
-910.0640891639858,304.70548046478666,244.52896758832023
-898.6677407677445,320.02263769992817,236.79849897773454
-906.2931786083934,312.3788449674456,240.6346713709575
-914.1358160024067,312.40433787277004,236.592516302713
-890.5242870909027,304.62492288396146,252.67140154894898
-898.5861634707062,312.3186817108799,240.749899303024
-906.9743490386627,312.20753264366533,221.00207512249344
-914.1633483401571,308.5355345607318,236.60475289726872
-932.830273334931,297.24931551549207,255.9864989573402
-914.0817710431187,320.1409247806336,236.5670233973885
-910.609637337929,323.8781847011977,224.83314893465152
-913.891084111292,308.60385554700133,244.45860716962474
-910.0916215017363,320.1460233616985,240.5520743577063
-928.9777854823004,316.5280702380528,252.0544732400973
-924.9060586438795,328.1395787552325,256.0007749843219
-933.1576022392968,308.7527341140961,244.169007765139
-924.4961327262624,308.93220416758015,271.77068621802556
-909.6551829625815,304.8074520860845,256.3087292806412
-916.5443856974605,305.07257830145875,279.7520050170038
-925.4230547638593,293.2520279606186,248.26214864403238
-917.1439788306915,316.50767591379326,260.08167926865957
-925.0141485624551,293.3550192981294,260.0419103363534
-933.4033538466247,293.2428505147018,240.29306643960987
-929.2500497111656,297.1504030428332,248.19178822533692
-928.5138146053955,305.05932199069,267.7988915684765
-920.6426251574188,308.90263239740386,271.8288100421653
-912.7724554256552,312.74594280411765,275.8577087996411
-924.5236650640128,305.06340085554194,271.7829228125813
-917.9893235712502,312.4339096429464,236.53439247857324
-917.9352786119624,300.8621700580729,240.49904911463145
-906.2105815951421,285.3655427694473,248.5762212376296
-909.8193572728711,300.90499813901795,252.39403873901898
-929.2775820489159,312.590945939745,244.214894994723
-906.1290042981038,316.2812989145121,244.5483421963668
-917.4988400728079,304.83294499140897,252.2665742123967
-909.7918249351206,304.7738014510562,252.38180214446325
-906.6194877965463,304.5729173570995,232.8073297201389
-909.8458698944085,297.0361948269797,252.40729504978768
-917.3346657625184,308.73641865468846,256.180245037806
-910.4464827438526,308.47129243931414,232.73696930144342
-899.3499309142268,319.8513253761479,217.16590272927047
-887.5436566003682,315.96212773985,225.20534535238846
-902.9026222002418,304.50867523568195,228.93852640810064
-899.0226020098607,308.34790677754387,228.98339392147165
-902.8761095787042,327.68682475667026,224.93614027216228
-888.5796882727539,323.4254307026355,193.76749450627892
-880.0283481107208,327.4400534331296,217.43000922843177
-906.9743490386627,312.20753264366533,221.00207512249344
-899.3499309142268,319.8513253761479,217.16590272927047
-902.5487806743384,316.18340615806625,236.75363146436348
-903.5582997251865,327.51551243289,205.3035440236982
-899.6497274808421,315.91420107784006,209.32530476768315
-907.5198972126059,312.0708906711262,205.2953862939944
-892.2159962882332,335.09608276016786,197.598568318437
-892.4342155578104,342.76434868176193,189.72024085696953
-899.9495240474578,331.28642298848234,197.49557698092624
-904.0212508858785,319.6759341875156,193.54825552048868
-896.096016478614,331.256851218306,197.552681088853
-911.6466887265276,312.0321414550331,197.38442791371165
-911.0460758770835,319.90639005164866,213.0656238368862
-923.4254307026355,319.7901424033692,189.3327486960379
-907.8472261169717,323.57430926973024,193.4778951017932
-915.5542412546589,304.32410660113294,197.3528167111093
-903.9396735888404,311.9729979146804,197.50067556199113
-915.690883227198,304.2904559661047,193.42588957493132
-927.2779185552661,281.2010217556454,197.25492395466344
-884.644603406872,296.38357645067384,201.76716819709077
-908.5283965472411,284.78430452804986,181.82457821988143
-893.2510082444057,303.94069330505323,174.13999683887977
-905.3295467871292,307.76156995508154,158.24771965961875
-896.5324550177687,327.28505656875694,185.78617570730066
-908.0114004272613,319.67185532266376,189.5642242763839
-895.7686875742481,319.753432619702,209.3701722810542
-892.4882605170981,315.71739584873535,193.73486358746365
-891.9161997216175,339.0332070584757,205.43814656381133
-888.1983144091001,319.659618728108,205.55949279315567
-891.4522288447126,327.56343909489993,221.18256489219053
-887.4345469655796,331.4363212717901,225.15435954173955
-894.9508751714399,339.2677417874606,228.94056584052663
-894.1605951063821,354.91324764318097,248.52217627834176
-890.5528391448661,339.37481198982323,244.7043587769524
-894.1605951063821,335.6039014342309,252.51232581972442
-893.9699081745551,343.3761784095487,256.41376005057793
-932.5039641467781,343.6739355437382,255.83456124160648
-931.2772455425655,343.98188984005753,291.1738463185696
-954.7796648192808,347.9261521518562,279.0351445192803
-948.4360102583452,328.2150377549928,243.87430977958834
-955.325212993224,328.48016397036713,267.3186052321639
-967.6219708055248,339.97032625820236,243.54800059143543
-984.1811423880735,332.0777227697532,211.92965997562882
-944.9648962693683,351.260624168294,228.15028577546872
-941.056324025024,358.9686590221942,228.182916694284
-944.9638765531554,331.95127795934394,232.14043531685135
-937.9115192242,335.58962540724923,212.61083040589807
-933.8948570612799,339.46250758413936,216.58262505544707
-938.4295350603928,320.0124405377984,200.88103480801294
-919.7350777278684,315.8581166861263,185.47720169476838
-922.525021286576,331.60151529829255,212.8545425807998
-923.5610529589617,319.75649176834094,185.4068412760729
-923.642630256,308.15008183222614,185.44457077595305
-914.8180061488888,331.5423717579398,212.9697705128663
-903.1493935237825,346.9278499793508,213.09315617463662
-911.4835341324509,354.5543075362127,193.31881937256864
-902.4672033773002,347.0991623031311,232.7257524231007
-896.1235488163645,327.38804790626773,197.5659373996217
-900.1952756547853,315.777559105301,193.61963565539713
-887.8985178424845,323.59674302641577,213.400090754743
-911.946485293143,308.09501715672536,189.54484966833732
-904.0752958451664,311.93832756343915,193.5737484258131
-892.9246990562528,311.74662091539926,181.96733848969834
-904.1028281829168,327.3788704603509,189.5968551951992
-918.6174687584446,320.00020394324264,216.87630332478474
-919.2711068509635,323.69769493150056,197.23147048176494
-919.2721265671764,343.00704114045067,193.2413209403823
-907.929823130223,350.5865917515156,185.5363452351211
-923.4804953781364,350.6722479134057,181.37896223481007
-934.3037632626841,339.36053596284154,204.80286336312608
-942.5563265743145,319.9736913217052,192.9700764277302
-934.6861568425509,343.1263479373691,193.0098453600363
-935.0399983684542,350.7609632239348,181.20561047860383
-938.4580871143562,354.7623296436602,192.9150117522294
-904.048783223629,354.4258232933775,185.58223246470507
-911.3203795383745,377.7661076922293,193.24336037280827
-915.9101222129883,369.8877802307618,173.57813320552893
-900.4960919376139,350.45912722489334,177.79873861104457
-881.2010217556455,354.17905196983685,178.07610142097457
-892.4342155578104,342.76434868176193,189.72024085696953
-888.7438625830433,338.832322964519,185.863674139487
-880.6014286224145,342.74395435750233,197.7464271693188
-895.5239556831335,354.57164271183336,209.25698378141365
-884.4824685290084,358.2140690245905,193.71141011456513
-873.0035231195159,365.82828998689666,189.93336154548192
-884.3998715157572,350.5111327517552,197.6628104398546
-888.6357726644675,354.30651649645904,185.8126883288381
-872.5405719588239,373.668887948484,201.6876303324785
-880.438274028338,365.9557545135189,197.67096816955845
-873.7672905630365,373.36093365216465,166.34834525551543
-896.4794297746939,373.64135561073357,177.78140343542395
-896.8067586790597,365.83542800038754,169.9530420683924
-891.0708549810588,381.7256657472226,221.00615398734536
-903.5042547658988,354.5624652659165,201.28790157699115
-923.2347437708086,346.871765587637,189.24505310172182
-946.000927941754,358.7249468472924,196.71243492935918
-938.7854160187222,366.26574824226424,181.0965008438152
-946.5464761156971,377.8976510837034,177.0166162756905
-957.5614506482848,358.8136621578215,196.53908317315293
-942.9111878164308,366.2269990261711,173.1855424635324
-931.3781974476503,362.2694804036037,173.37215053050738
-930.9142265707454,370.109058648978,185.12641931750395
-934.3863602759353,366.37281844462694,196.86131349645396
-934.958421071416,362.36737316004957,181.16788097872364
-923.2898084463095,377.7528513814606,181.29024692428098
-935.5855465423974,350.62432125139577,165.4989216501048
-935.7762334742243,342.85306399229097,161.59748741925125
-934.9859534091663,358.49856984801136,181.18011757327938
-950.7538252104441,346.94314572254547,173.13353693667054
-927.0882513396523,366.2106835667634,185.19677973619943
-942.3381073047372,350.9230981017983,192.86912452264536
-923.0715891767321,370.0835657436536,189.16857438574849
-931.5964167172277,350.6284001162477,169.48397261042254
-915.9641671722761,342.84082739773527,177.59275593602302
-919.9532969974458,342.83674853288335,173.60872469191827
-922.8798825286923,319.9278040921212,205.03943752453694
-919.4352811612529,339.10458719338413,189.32765011497304
-903.9947382643411,342.85408370850394,189.54586938455031
-923.7792722285388,327.4257774061479,177.52851381460542
-912.4920334670862,327.26772139313636,169.84903101466864
-907.7656488199334,335.18071920584504,193.440165601913
-911.8373756583543,342.8795766138284,185.5037143163058
-923.3978983648852,323.6589457154074,189.3205121014822
-931.0498488270716,331.4556958798367,189.17979126409122
-923.5885852967119,335.1970346652527,181.428928329246
-939.5746763675669,312.0005302524308,169.4941697725523
-930.9682715300333,304.44341339805135,197.12134113076334
-930.8591618952447,319.9186266462044,197.07035532011446
-931.7585515950913,308.10725375128106,173.54958115156555
-939.3289247602394,308.201067642875,177.36026063946406
-923.642630256,308.15008183222614,185.44457077595305
-912.3819041160846,304.1232225071763,177.77732457057203
-919.8982323219449,311.95464302284677,181.56353086935908
-912.4910137508732,307.95837518418625,173.83816083983828
-919.8706999841944,296.514100125935,185.540424099973
-908.2020873590882,311.89957834734594,185.66279004553036
-904.64837635686,307.9328822788618,177.8803159080828
-931.3771777314374,304.3404220605406,185.3415794384423
-920.634467427715,304.0467437912029,161.9554078100065
-912.1912171842577,292.58615327354397,185.6689083428082
-908.2836646561263,300.2931684112312,185.7015392616235
-931.4312226907252,296.60383515267705,185.36707234376675
-946.9268302631378,304.4260782224307,181.1831767219183
-958.8697465495353,308.28060550748734,169.21782667883528
-973.7106963132162,312.405357588983,184.67978361621962
-966.6583389842608,296.7343588279382,169.14032824664898
-970.156985310988,289.1293153115488,180.88745902015472
-974.8007729448896,292.8227274349549,157.25757521681717
-966.6308066465103,300.60316213997646,169.12707193588028
-978.8724997833104,281.2122386339882,153.3112734725926
-959.0869461028998,296.64054493634427,165.32964875875047
-939.4115217734904,315.9040039157103,173.4078405979616
-924.2697557269813,315.7163761325223,165.78648162216456
-897.6235513656551,327.0117726236789,154.3738177665156
-901.0406203953441,311.70379283445425,170.0723488653108
-889.725849296141,334.72388634243094,158.39047992943566
-881.8821921859148,334.6983934371065,162.43263499768017
-889.6167396613523,311.58040717268386,166.31979320155205
-897.2962224612891,315.5083540250749,166.1913089587168
-892.3791508823097,311.8832628879384,197.67402731819737
-873.5205192394957,292.3230664905957,190.17299485553173
-870.2390724661327,288.28702971962906,174.53768616194114
-882.3716559681442,265.06197325284376,162.66003171317425
-866.2224103032128,272.85056568756914,182.49861063665983
-909.0188800456833,273.0759229706373,170.08356574365357
-904.4566697088202,296.3947933290166,185.771899680319
-876.7193689996076,307.9644934814641,205.77057404924213
-896.7506742873459,296.3356497886639,185.88712761238548
-927.6317600811694,288.83665675842417,185.44966935701797
-938.8659735995473,316.04064588824934,189.11452942646062
-939.2473474632011,319.8064578627768,177.32253113958387
-943.0743424105073,323.7058526612044,177.25217072088842
-958.1335114437653,335.49887066429415,184.83580019680525
-981.1179148842879,335.71199135280654,188.4150041043578
-1000.2222981344294,339.7633238669679,192.04009524149433
-973.8748706235056,347.1215960598166,172.78683342425805
-977.0472077620799,347.32248015377326,192.36130584858236
-978.246394028542,331.57398296054214,160.9999337184462
-958.4067953888433,335.43054967802465,176.98296564066223
-934.8493114366273,319.91352806513953,193.08632407600967
-943.3200940178349,327.5053152707602,169.38607985397667
-931.4862873662261,327.48492094650067,177.41226616632594
-907.929823130223,331.27724554256554,189.5264947765037
-912.6276557234123,307.923704832945,169.91225341987325
-907.7381164821832,319.74017630893326,197.41705883252692
-895.4688910076326,323.69055691800975,217.21077024264153
-900.5215848429383,307.971631494955,185.79127428836557
-881.8546598481644,319.25785054019474,166.40952822829408
-874.4749736148432,311.39277938949596,158.697414509542
-889.3434557162742,311.64872815895336,174.17262775769507
-890.0256458627565,311.4774158351731,154.540031509231
-878.0562169548216,330.8000183548919,162.50299541637563
-893.3336052576569,330.9529757868386,166.19844697220765
-893.3876502169446,323.216388878975,166.2239398775321
-885.3543258911045,330.9621532327553,174.16752917663015
-897.4328644338282,334.7830298827837,158.27525199736914
-889.4260527295254,338.6610106407387,166.23107789102295
-939.9846022851841,331.2079048400831,153.72527825506162
-912.3829238322975,342.74293464128937,169.79804520401973
-954.9071293459032,343.03559319441405,165.23583486715648
-962.1777059444357,327.75718517536575,180.87624214181196
-969.694034150296,354.8979518999863,180.67229889921637
-996.722632091489,347.3683673833572,180.29296446798858
-1008.5829513646353,343.5209781117915,172.27901475019505
-1004.5662892017153,328.08451407973166,180.2399392249137
-989.9700713291492,327.7602443240047,156.91291113683064
-978.1372843937534,327.73883028353214,164.9390974491799
-985.4619059515738,324.0331815655704,176.61586780399017
-981.2270245190765,320.2367781046535,188.46598991500667
-977.6192685575606,324.0076886602459,180.65802287223468
-973.7922736102544,320.1093135780313,180.72838329093017
-1000.3844330122929,297.24217750200125,196.10570378263733
-989.2328165071661,297.0494511377484,184.49929384652253
-1009.7821376310974,269.84342257549724,152.88605181178082
-993.9316688165685,273.6959104281279,164.88505248989208
-997.2671605492193,289.30368678396803,176.55570454742445
-997.8942860202006,296.8699810842643,156.89761539363596
-994.2314653831841,289.06813233877017,153.05430498692215
-966.3034777421445,289.0997435413725,180.94558284429445
-966.41156766072,273.62453029321944,180.9955489387304
-951.3523986274621,261.8315122901297,173.41191946281353
-932.4672543631109,265.4484456975624,161.90850086420951
-928.8044337260941,257.64659695206825,158.0651904574957
-921.7796087348892,257.4161410879353,138.54782214109815
-910.3822406224349,253.42395211412668,134.8075030718951
-913.6361550580474,261.3287921971316,150.43057517092996
-894.5593041456564,253.40763665471903,146.81874034456212
-906.9651715927458,249.42360541061424,123.09810179826955
-914.6446543926826,234.0422060540552,126.95976709681698
-922.3241371926193,237.97015290644615,126.83128285398175
-933.8846598991502,238.0598879331882,126.65793109777549
-946.4536819403161,230.17238302580392,99.02413158418014
-950.3612344684476,222.4643481719038,98.99160263698613
-941.8088745902016,226.4789709023979,122.65350552941118
-957.7409207017688,230.32941932260255,106.70412424222341
-993.2127688864191,214.95107911468244,86.60123487633393
-984.852115656213,230.50379079502179,102.37236976949316
-1011.5809170307905,226.91133057670052,109.83363329985266
-1008.0547383663128,238.38517740512816,98.0737560736847
-1035.9297007642774,226.7828463338653,74.14764471047708
-1042.6292362835425,234.81922980834435,101.49255862093581
-1054.8148450286287,223.16489321021962,85.6508593658385
-1051.1744581482974,211.4952608689002,81.81998949692301
-1056.2832363753168,207.34807503071895,46.435938878210195
-1035.5218142790861,207.57547174621308,89.91704608607427
-1028.2206461941641,207.41333686834957,78.25302218392622
-1001.3562225632608,211.03944772169905,74.71858381812343
-993.0220819545922,222.72335609000018,90.50256713556618
-989.6050129249031,218.72198967027478,78.79336980518323
-985.2610218576172,211.09145324856095,94.58265564693347
-981.707310855389,226.43410338902686,82.81023591134588
-988.0234330785743,230.70467488897842,121.94786191003045
-1007.9180963937737,219.11050154741937,105.99032289313885
-1007.999673690812,226.81343782025462,102.0379028516364
-1003.6006179480252,226.92050802261733,117.80271550427518
-1003.5730856102748,211.47996512570555,121.7796087348891
-987.3963076075929,223.1383805886822,141.60595106381894
-984.0332835371917,211.39940754488026,129.92204269551786
-956.350027787267,215.23048135703837,149.94620996976542
-972.145431926295,219.11560012848426,137.92273610254267
-976.2997557779671,215.2090673165658,130.02503403302862
-972.009809669969,219.15027047972552,141.8496632387207
-952.1691913140575,223.00683719720803,157.83167544472377
-947.7160906119828,230.85151402364724,173.57099519203808
-927.6858050404574,223.17101150749747,197.44459117027733
-870.7285362483623,218.65060953536633,174.76508287743522
-850.9705149057017,230.21011252568414,186.7956947581488
-816.7529176630145,222.10234891629662,175.56250095598398
-793.9051561950309,221.85557759275596,168.05535019604048
-774.1471348523706,233.41508058307375,180.08698179296704
-778.4095486226184,233.34268073195233,168.24909627650626
-765.9221038784907,248.93312191217186,191.9309856067057
-765.7038846089134,241.26485599057787,199.80931306817314
-784.1525903341102,222.30935130753113,227.06938658971208
-761.4139385009153,225.89671294478748,215.62409181524782
-769.7756114473343,210.34400126444814,199.8531608653312
-757.6420082291099,214.26073123849633,215.71994513926776
-761.3588738254144,214.32497335991397,219.58874845130606
-780.3541474407673,214.54217291327828,227.1530033191763
-800.0846364456772,226.1597997277358,211.12000530252433
-822.2512274833915,226.57788337505673,238.25873259471894
-842.0092488260517,215.01838038473898,226.2281207140053
-859.7767841209793,215.5425145182096,269.1306409426257
-891.5858116686128,192.36334528100832,245.18464511326502
-906.9988222277741,173.17330586897668,248.94331907430166
-891.1218407917078,180.89357731743257,260.92906344164425
-865.0742098473996,145.69603279407343,241.81448302937295
-826.7298210907906,118.31767219182903,242.48137743266054
-815.1417660465094,83.47825200246773,250.62177196086333
-808.5248275404956,63.835662535116484,223.3147914935274
-816.8049231898764,59.88966670575579,207.5051113275176
-840.7152289517828,44.422305272442685,187.57679737728992
-863.5364777982289,29.22853369907155,199.05982165163437
-890.5640560232088,2.38994967700489,202.66961704557625
-855.9915975384052,-13.352775922460781,203.24065812484386
-841.123115436974,-32.917968929246996,191.75559441807346
-848.9657528309872,-52.202128147736495,191.70358889121158
-842.0225051368205,-44.72944379579163,168.23482024952457
-819.4470078977022,-83.66353443836582,160.85513401620332
-816.4653576909548,-110.94512397199861,141.36835718619508
-801.4602336169845,-130.47676831537783,133.8092008993897
-809.1121840791709,-141.98936435989864,137.65862960338137
-821.1081256086431,-165.18077019165568,129.7079022907925
-821.1897029056814,-176.7861604115575,129.74563179067266
-829.2515792854849,-188.40174779358907,121.81529880234334
-840.8936792890539,-180.60907649401173,117.68952700463461
-860.2427944303101,-192.06660786303172,117.43867681624205
-875.7659343404731,-168.80382189636626,109.27788796377969
-930.0953944517241,-183.93029219968085,100.66618060193849
-922.9614598257306,-187.99488102461086,85.08828193113858
-934.7391820856257,-199.54622628522483,81.026242396741
-930.8051169359569,-187.9704078354994,81.04612686289407
-969.5298598400067,-195.44390796041463,76.56661551090333
-954.3350685504224,-168.58458291057602,64.9297160600205
-964.8585398683548,-175.95917056283238,96.1940112066812
-985.1345770472078,-183.78753192986395,68.44426995967022
-1016.044214894995,-175.84598206319185,64.02991847368878
-1031.4327522650449,-171.85787195423515,63.78600235554447
-1031.565315372732,-171.8925423054764,59.85938113423035
-1047.3913109981493,-191.1855730550188,51.83829340294597
-1066.1948779654624,-202.50646245149977,67.29331627008204
-1065.7869914802711,-183.09412490503894,75.08313236426304
-1054.4171557055672,-190.9551171908858,71.35535580447961
-1050.5320369341214,-187.1158856490239,71.40052923271455
-1011.5635818551698,-183.44184813366442,83.74572356513184
-995.8232423916425,-175.7552273202368,91.8048467111603
-969.0393763415643,-164.42618019405202,84.31860013358283
-969.2035506518537,-168.32863414111856,80.40462339330965
-949.2273100396161,-164.43739707239476,100.31386865035462
-897.9875900536882,-137.50465245522173,128.46282879474643
-901.4046590833772,-133.50328603549633,140.172230068372
-955.9788510857429,-202.75731263989235,135.66406469079658
-984.1250579963596,-233.73833062258777,107.87373873850908
-988.6056910361848,-206.83311834316513,84.16849790703249
-1000.0305914863895,-168.09104026349468,79.94208011910287
-980.137967603616,-79.25897222802895,79.9403466015408
-965.1073506243214,-17.68361265059934,56.41008907221121
-983.6661857005197,5.814340269103109,71.75131160997896
-1018.8657696563047,29.123502929134826,51.5222833485441
-1051.0520922027401,-9.599343302758843,19.7738269439615
-1138.2684198987422,-116.69224454834222,81.62267440971178
-1189.3663993310663,-202.39225423564625,402.96533474733985
-1235.7023040487834,-92.92816609137678,488.243181922471
-1360.7297089220071,-65.37380247077239,431.3328200761729
-1358.4557417670662,-58.076509307459744,384.247423941917
-1271.9430182580188,77.86685565407149,518.5216154344246
-1305.9607511229626,488.65922613736603,563.7215562908843
-1381.154624667955,852.7438014000705,541.743612752571
-1218.622057481403,962.6651302942391,429.9939326885328
-1192.476533780649,813.5051215246798,215.03469584414657
-1191.0693254067396,595.5999245410003,78.4289232306649
-1091.5042343715745,660.3202928624964,48.304874753356145
-1062.9215889218033,733.891797912641,79.88181489091586
-1039.6108762931278,644.9378737897243,104.07835499380522
-1023.5401487765955,505.95463282568466,151.8836707744235
-965.1338632458587,455.45522681037875,180.40105438656425
-899.9515634798836,427.83315403323263,177.54584899022603
-850.2108263270331,377.1532582482296,178.4625738656932
-784.2362070635743,307.2496724161666,207.15840781510508
-783.4744790524798,376.95543330291184,214.78384565575405
-856.4463909693934,450.95827831114605,205.59212371197097
-860.7363370773915,485.63474784967354,185.78821513972665
-874.6248718981509,528.6178256591191,220.75632351516578
-908.0787016973178,567.8126577373517,247.59525424074482
-909.0056237349147,552.1324815303902,224.08671666675167
-920.0481306052526,567.799401426583,235.64214079221753
-889.4933539995822,567.4924668464766,228.25225739676648
-909.0331560726651,548.2636782183519,224.0989532613074
-917.8312675582387,548.0495378136266,192.5713673884558
-924.7194505769046,548.3146640290008,216.0146431248184
-902.7445661872302,540.1243034063621,184.97448160177024
-884.1041538139937,528.2333926468265,169.5961413938501
-864.9457256045644,512.6093008315786,169.93570689277178
-846.6326421356938,512.220788954434,142.73885577643745
-829.8012063242801,539.4910596381028,178.22090112321743
-836.226438182254,547.5957640988513,213.41844564657657
-817.7502001193069,551.1107258849863,190.13526535565154
-820.5666562995519,543.6759749761642,221.51499237762133
-812.0968934345573,555.3945536957066,241.22610677448466
-816.08704297594,555.3894551146417,237.24105581416694
-812.2875803663841,547.6222767203888,237.32467254363115
-812.9147058373655,555.188571020685,217.66658338984266
-804.38987829687,555.3343904391409,241.3413347065512
-820.1852824358981,539.9101630016368,233.3080103807111
-815.6771170583228,536.1831002432024,253.0109670478706
-826.9103108604877,544.0777431640776,260.66495694248295
-819.2583603983012,555.5903392085983,256.8165479547042
-830.9004604018703,544.0736642992256,256.6809256983782
-827.7831879387967,555.4445197901424,233.14179663799567
-834.563281038887,571.1848592536697,256.53510627992233
-845.3325039641469,567.6097342109691,279.9335145029139
-849.1870312492035,586.9496719063085,275.88524113739146
-844.9786624382435,598.5938113423035,283.7584700177941
-855.721372741966,598.8885093278542,307.1446416462299
-843.5072119429163,614.4106295218041,322.9736964202863
-870.1258839664923,606.984036342686,334.37310396516654
-881.2775004716187,587.8674164979886,349.96966344266394
-910.7687130671535,584.5788317111349,388.7851610896688
-914.2673593938807,576.9727684785325,400.5322918631745
-921.101497453259,584.9755013179832,423.9500746942127
-920.9383428591823,569.5686090560997,431.85389506100455
-924.3003472133706,542.6888896820016,451.5181025120709
-921.4267869251989,499.932188871837,432.08129177649863
-898.1701192558112,499.7873891695941,436.35492242508917
-890.3550141995485,515.2034588773945,436.4201842627197
-901.8880045683287,519.1609774999619,436.2345959119577
-898.2802486068128,522.9318880555542,428.4266288691858
-908.7221426277067,507.8533444142496,463.6425282843785
-936.9223944976114,449.8263933147406,439.8678447787981
-929.2418919814617,426.58808053718656,443.98647856301596
-959.9598231812088,384.37284903611334,455.44197049961
-959.9863358027461,341.8853533061749,463.434506176931
-930.8754773546523,310.32105764965615,420.80628960960166
-885.3696216342994,263.4365456093569,409.8718726578394
-836.8005384101606,239.49564836106117,371.4336700096364
-807.2542611391251,192.59380114514133,344.562108365242
-757.4309269730235,153.51929558004008,345.44110374082896
-711.8159616178818,122.10999678789393,334.4557009784177
-669.2917561042763,102.50799202581923,343.00806085666363
-672.2988992163482,87.30177991464976,370.48737336399284
-703.5633983062515,122.18749522008027,350.2776177389833
-660.4956840511286,179.9595172663448,358.5770879964106
-632.9215379359924,206.93508996446292,370.6729617147548
-633.2763991781088,233.8790514599787,354.87857729193973
-674.7380603977914,269.1959027802563,373.761682123865
-694.2238175115866,277.0140669851581,365.59375525791177
-725.4067393044517,304.1956223582977,349.3364196744046
-784.0546975776642,319.8778379976853,320.9332442781174
-795.2052943665778,320.0695446457251,332.53863449801923
-791.733160661388,304.4964386411262,324.7938898604519
-752.7351338122601,312.03927946852394,337.12735745641993
-710.8920987289239,292.26596238266893,326.0461013699888
-680.5545216766175,241.70027481351943,322.74731942100516
-680.5524822441915,145.15252405255617,342.6960276954924
-662.9022143137565,114.69971906818333,413.7060056186364
-670.2553879255404,145.7429397398704,417.41573320145005
-681.9250202668599,168.97615393635954,409.3130681731274
-682.334946184477,188.1835285240118,393.54417665563676
-686.4607179821857,188.14477930791864,385.633218275354
-671.89203244737,203.26105244910343,358.328277240444
-636.6669555862604,241.74922119174238,366.57472225479654
-645.9096633406923,281.03786716156895,425.1737341497862
-632.714535544758,339.2881361117202,460.49568405112865
-683.6544589640704,296.9821498676918,444.1771654948428
-710.8451917831268,246.93039926988322,447.863439604758
-661.4868482101432,277.25472001142083,421.02858774403086
-630.6414524837738,324.3605104699363,523.3713857433478
-576.7841209791316,336.5032911340774,630.1020226071086
-491.82442526244955,329.16643298170123,749.137575012874
-368.59681950513175,374.5366664457282,739.0566605313743
-281.85058098331234,435.17001218560875,673.4328236451796
-199.447313812566,464.8152019293031,600.0
-104.91248285602119,536.9958140649459,534.4536615459918
-98.57729193965321,541.4509541994464,605.177099213289
-7.084702727231012,560.7939510434247,684.9739717436638
48.49913069192844,599.4065251640469,724.9223741032872
74.41134332315318,525.5556178715465,709.8611656376031
286.5677881845483,612.7974384728731,700.9712796928616
228.50412730137205,1123.0746483253713,1031.9732018579232
112.94580718186131,1767.1681970907496,1565.7436535412196
122.93392748798011,2322.9237303258506,1850.509603177436
-197.48639953500944,3703.323764996202,2767.2650701309826
19.609958548535946,2856.9695053866512,2204.3001432701285
-373.9085212585338,1191.181494190167,1195.4031193118956
-656.3240250238359,231.21045413061546,468.35667633697545
-543.2487138829264,-129.47336756180758,471.2669464088145
-488.5766291241148,-324.6725436311075,755.3170552635203
-728.2935559033922,-255.50825205345353,492.4678661928386
-1045.3110899236742,-153.9129060382496,326.46724416594867
-1167.4017121035217,161.15391086660583,405.99287218367135
-997.1927212656719,477.8063864826419,917.67423126144
-572.3667103445113,498.9379655641835,1057.4049242095925
-497.161619921176,453.40151835744115,791.8096393773613
-445.8403226382099,357.6481265263877,514.2530833668991
-403.91571025783526,349.48019966043455,503.1351174968007
-552.1294223817512,451.57010803893286,539.8163491100428
-637.7335787450354,514.8037301219072,612.8892129320411
-666.6272376397649,596.6267787674691,651.4263280529029
-614.4473393054714,441.29034889590235,633.1091657191804
-579.7565937399622,378.23823629883805,535.7252476635753
-574.6763675669062,378.51661882498104,571.1226565646781
-641.0680507614732,453.17310192573416,640.519443438891
-692.7533867324724,504.3618361010132,694.5174957809243
-678.821004114555,531.901311864908,757.4268481081715
-664.7693146997192,454.2019955846289,734.351689924694
-544.8098994049957,305.6568756914951,669.9311181698134
-494.5705210239991,319.75751148455385,560.7470440976277
-538.6875232622762,448.0908363202521,594.9748385024449
-607.6509307459735,511.5131059026274,703.6174432655392
-612.3589605012926,570.2538583512209,777.9160059755371
-653.2200088715311,594.135612059164,816.4694365558067
-657.1285811158756,586.4275772052639,816.4368056369914
-619.1655662229202,543.5056823685969,809.3008315785718
-544.6477645271322,386.79773419057483,657.8862302621181
-503.10758515905025,478.94337006011233,615.0265381144428
-523.1490876089185,607.3368581523763,677.0874865524926
-530.5828188015277,588.1559961862614,688.8142230017387
-556.7936043399122,580.831374628441,711.9944119551529
-561.3558146767755,557.5125042700616,696.3060780184875
-530.6633763823529,537.9308938322465,696.8322515843842
-538.8618947346954,564.9003482330868,676.9946923771115
-537.7626406571052,560.317743571964,598.5346678019508
-461.12994753560093,555.7514543702488,587.9235008897025
-500.3563908164358,618.6618264137092,665.6166988727039
-503.33600159075735,607.3256412740335,693.0827550692643
-486.2312818342656,596.0445208098587,744.3969143387396
-464.5286616734563,587.7868589171634,705.5039182595485
-438.83487225505144,521.6052372624699,682.564382332397
-344.61411389210383,388.0295513758522,539.2147165443857
-248.60579300780597,418.0979233479323,524.8530334008046
-329.0522247658477,705.6201659078279,589.3969908174555
-371.0971636593536,857.6435378034295,678.5201878317265
-327.12496112331945,753.4428168640668,746.2487189815075
-349.80752856480046,661.0453110899238,777.6182488413475
-356.0594086665682,610.2685422646878,718.8265105821051
-343.29052224765854,563.1433771981258,652.4582808604366
-286.16907914527394,523.9067367551611,641.6717227595561
-271.24757180076784,608.6267991617933,610.212457872974
-276.91209536386026,744.3653031361373,641.0670310452601
-287.43760611421845,794.9187541107311,660.3621012272285
-287.1633024529274,737.0590364701504,680.1843646913064
-306.04742700106567,656.2036985107045,707.6463420230151
-293.232653352572,640.98137488337,747.1358720867984
-284.16227763813333,641.2638362743648,786.5173122320059
-252.84373358894223,652.7346239541537,798.7212758689258
-230.1326140934978,671.7635482045347,783.2990878638476
-222.88855011650259,644.5544604936447,775.6501965503002
-212.58329806814766,678.9066602764451,732.5182401737598
-200.15091799952074,706.0698607577511,752.235472867901
-223.84402420806293,702.2428658104451,736.1953368377582
-246.88247260787327,656.0996874569809,747.7793130171874
-252.4796949009091,601.6254276434869,708.6334273171777
-221.35183778354488,586.0145921390077,720.9261062646266
-187.43505682368598,612.5883966492125,693.8720154181093
-159.01556596799114,643.6377356181775,729.5141562103267
-139.06787740971689,701.5882080017133,737.4669229553416
-115.73167187571701,809.5975689965484,721.7541158295647
-104.33532347947568,863.53341864959,706.0443678524268
-90.2845518092315,824.4527947872108,674.9889105861839
-103.12492033467086,758.5689302667068,651.471195566274
-118.83772746044777,716.1324203474173,651.3794211071059
-138.86801303197322,665.884884236717,639.4752540368016
-151.43703507313916,638.6880331203827,615.8310942064825
-151.43703507313916,638.6880331203827,615.8310942064825
-151.46456741088957,654.1285760172944,611.8531812596556
-129.21741879235012,684.6262485150384,580.6865749261981
-132.99036878036844,754.1902688481797,568.6223124104562
-106.09841281171451,780.9945292225175,561.0845701641234
-64.31003451739382,772.7929517215359,546.04069687406
-83.14103185083593,776.9136249381799,557.5176028511266
-82.81319308836352,746.0998404144128,573.3252435847104
-74.61559248061265,757.7490784314726,585.1825037092177
-82.02260710844173,761.7463659863461,592.9078737387387
-62.45588452733605,784.8439579265091,597.046901847216
-63.166014898053874,838.7329006337538,565.4581330015858
-70.98162981242322,823.3168309259535,565.3928711639551
-71.28193623714522,838.6890528365956,553.5631433771982
-67.45565509118813,834.7906777543811,553.6335037958937
-60.320598777360274,792.107396511551,546.0345785767822
-25.802593138329605,768.6263912753082,546.6311125613743
-34.19047279142215,729.8965497901935,534.8625677473959
-25.4471200664855,722.3730835708424,566.415646525572
-14.704409762763024,702.7690393763417,547.0196244385188
-11.314363212717902,694.899889360791,535.322459759449
-49.822620364752495,737.684122508706,526.7527647055825
-29.955081500818324,726.1011660454895,546.7126898584124
-18.74901214991868,714.3367000963633,539.0709365583559
-18.258018793369807,706.7357354448259,554.8020985759664
12.378946939066859,698.7268843080972,551.3636155058048
11.670040227804604,694.6867686722786,531.7432558518965
23.06720439701631,671.3852334895199,531.993086324076
33.75474805361668,682.6622750888429,504.6422580595821
25.420811388190668,670.9793864367547,488.85807079889673
32.445636379395616,690.0582767815717,465.3515726573295
22.084809797433376,705.8954892853319,496.53959303125947
10.279249284924008,690.4763604288927,492.49029994952406
37.85329342843887,698.1415672018478,508.5763232092509
79.69592062528999,697.6775963249428,493.5059372976501
118.7214798121683,709.0892404643788,505.8261485828495
143.85952389450017,744.1735964880975,557.1046177848706
210.63971896621172,833.8066516088574,687.3142204524481
432.31888565412254,1049.8794185578154,815.4935681399867
477.8930623607451,1270.4848240734605,862.5279784635937
421.0336863250958,1449.812117287759,963.1117659955236
300.35231195158394,1315.2605629853215,953.9088271733978
207.61014209745431,1079.3390199507478,882.6714525347597
132.74155802440183,935.5998225693791,752.5230328399608
88.12938159310265,768.3112989654979,611.1322418970801
71.47201133924429,643.5408625779446,489.6412128504637
69.56473413449038,565.8242111220449,450.62789025814124
44.01645821967747,588.5659221038786,375.6012501720772
26.60327430875987,600.7647871597335,426.3188754569604
-53.39132119531135,559.1420107784005,460.5833796454447
-72.08526866972922,524.6776422121725,483.9664921252416
-55.47144029816502,520.9974863995351,519.5494893771064
-52.71718680691164,525.5505192904815,598.0676377764069
-35.09536895881876,568.4662958298705,653.132313277215
56.149245664931456,707.465852253318,701.1252568410212
132.4703135117497,877.6034629562595,756.6386074755396
165.04004935426474,1028.41439227463,776.2416319538273
180.61723422371557,1032.1975394247784,780.3867783595826
205.62985321185116,965.8476645949435,737.8146461839672
173.16718757169883,907.7472939281,702.202077161926
178.93980105336686,806.7933494108592,667.3073883538212
145.6603427266192,690.558957442144,620.1057445712859
148.58692825786585,655.5398632560559,600.6444606466022
117.97810669290739,648.1081714958727,608.0608566635906
98.49255352235474,636.6169894918245,603.88307933902
79.77025793721607,656.2118562404085,615.3100192216507
49.67833052061612,683.6677152748391,630.4650415789287
57.3300770395599,714.48965752831,622.6264830497673
27.12934590303519,726.4703033145877,637.8324912176942
19.503602147522347,757.4462227162181,633.6893842443649
4.607608102665029,773.1427143825874,645.186684545691
23.983623357619578,788.4680293474328,645.4252981395279
34.18129534550535,749.417996971443,614.3127367653583
72.85229920513122,749.1549101884947,618.8178429942948
80.2865402558468,749.0274456618723,611.0802363702182
96.65522884981111,729.8384259660537,642.7872922965539
104.0610198181846,764.4598308290804,627.0826429004809
115.6215425247154,764.3711155185513,627.2559946566871
101.10761575053664,776.301795210393,650.546312961103
86.29399438136367,764.984984678764,669.9851631291012
70.5802695109951,761.1671671773746,661.9141093033809
77.71461202347388,757.1025783524447,646.3359047177172
58.28371564193685,753.3479832562598,642.1326344878222
53.285066765919055,745.3666644572816,610.6876456282217
72.57962708978093,749.0865892022251,610.9650084381518
72.57962708978093,749.0865892022251,610.9650084381518
76.35104750347979,756.7599537048841,607.070712220789
77.27837742756192,753.1307837028957,634.5693993361648
85.61221212136664,764.8146920711968,650.3525668806371
73.69754197406863,753.2286764593415,642.3641100681681
85.06717380552993,745.3676841734946,638.6370473097337
81.62277638133308,745.5002472811817,650.358685177915
82.2229813442919,734.0651496688472,670.0290109262593
89.49365991444581,730.0342114789455,658.3777334767735
86.1584740966589,726.3326416258357,674.0385350756885
78.01481647657458,741.7293367255894,658.1666522206871
78.15166239235622,722.4546608678805,666.0827091820347
70.17197513931873,722.4454834219638,658.1136269776123
81.89595835478987,726.2592220585012,662.2016692754407
84.95847205722647,729.8934906415545,638.6870134041696
73.53438737999217,730.0168763033249,642.4405887841414
85.8309412490504,737.8360602244396,662.2210438834874
62.055238027257026,761.0213477589188,638.2393579866724
85.09399234193125,768.5458336944829,634.6336414575825
77.19639224403849,760.8337199757308,630.6169792946623
65.17210260384536,772.3922032498357,614.6992092100769
68.56214915389047,764.523053234285,603.00306424722
84.9576562842561,768.5121830594546,630.7077340376175
61.72811306613371,753.2154201485728,630.4109966196409
76.16036057165292,748.9886964457792,603.1692779899355
72.66110241519786,760.6929991383399,610.9262592220585
80.31366470711201,752.8962489739107,611.0679997756625
65.49963545145387,760.8887846512316,626.5167004022782
77.35995472460016,764.7371936390103,634.5306501200716
65.8815191732141,757.1229726767041,638.3097184053679
77.2511510046754,749.2619803908573,634.5816359307205
73.28853380104317,753.1267048380437,630.5843483758471
76.26947020644155,745.1535437687692,607.1084417206692
81.62277638133308,745.5002472811817,650.358685177915
73.53408146512825,749.3262225122749,638.4504392427588
65.3364808573774,737.676984495215,626.5931791182514
80.91346178358565,760.7704975705262,626.7481759826242
88.15691393085305,752.8707560685862,615.110154843907
72.41565672273407,764.4934814641086,603.0611880713599
84.71210862017101,772.3126653852235,622.8416431707057
76.29669662932807,749.0223470808074,607.0962051261134
80.64078966823534,760.7011568680437,618.8953414264811
84.03083621828047,752.832006852493,607.1991964636242
80.72236696527358,772.3075668041586,618.857611926601
77.06005618636334,760.8000693407025,626.6910718746974
81.21336032182245,764.707621868834,634.5887739442114
80.74989930302398,756.8670239072467,622.8345051572148
84.54864811123065,768.4091917219439,618.9279723452963
80.72277485175876,752.9982205952084,622.8467417517705
77.2511510046754,749.2619803908573,634.5816359307205
77.38748706235056,749.2966507420986,638.5085630668985
84.82172811306614,749.1681664992633,630.770956442822
80.45000076478718,752.929899608939,614.9939071956276
77.00560334059033,753.0624627166261,626.7155450638088
72.90705796576813,737.5831706036212,622.782499630353
65.39083173152912,745.4145911192916,626.567686212927
84.49419526545763,760.6715850978674,618.9534652506209
65.82716829906238,749.3853660526277,638.3352113106923
76.73293122524002,752.9941417303565,618.8627105076658
77.41471348523707,753.1654540541368,638.4953067561298
76.46025910988973,752.925820744087,611.0098759515228
69.08036893332587,760.7908918947858,618.7219896702749
80.64078966823534,760.7011568680437,618.8953414264811
80.12256988879996,764.4333182075429,603.1764160034263
84.57618044898105,752.9686488250321,622.9048655759102
81.43168156302102,757.038336231027,642.4671014056788
84.13953796658392,768.306200384433,607.1482106529753
88.72958655606146,756.8762013531635,630.8035873616374
84.9576562842561,768.5121830594546,630.7077340376175
76.6785803510883,745.25653510628,618.8882034129902
80.39524200415025,764.5016391938125,611.0292505595693
73.20654861751974,760.8296411108789,626.6329480505576
77.71461202347388,757.1025783524447,646.3359047177172
81.02267338999557,756.9353448935162,630.6873397133578
76.16036057165292,748.9886964457792,603.1692779899355
76.97807100283993,768.5030056135379,622.7386518331949
87.965819112541,764.4078253022185,607.2185710716709
76.95084457995341,764.6342023014996,622.7519081439635
73.26089949167148,768.5672477349555,626.6074551452332
72.71555526097087,768.4306057624165,610.9017860329471
76.51460998404146,760.6634273681635,610.9843830461983
64.98141567201849,764.6209459907309,610.7987946954363
69.54382995212434,768.63047014016,630.4762584572713
88.78393743021319,764.6138079772401,630.7780944563128
84.95806417074128,749.2028368505046,634.696863862787
76.86926728291517,753.0277923653848,622.7896376438438
68.78047039508905,756.853767596478,610.8813917086876
81.51366674654444,749.3343802419788,646.4195214471813
69.35344893516135,741.5498666721053,630.5649737678004
73.39764343583182,749.2915521610337,634.5235121065808
80.36811755288504,760.6328358817741,611.0425068703381
73.23377504040626,764.6984444229172,626.6196917397889
77.08718063762855,764.6688726527409,626.6778155639286
84.87567110073267,776.2151193322899,626.755313996115
80.74989930302398,756.8670239072467,622.8345051572148
80.47722718767368,756.7987029209772,614.9816706010719
73.56079802990828,772.5043720332633,634.4480531068205
87.85670947775235,768.2429779792285,603.279407340937
68.97166718502241,745.3156786466327,618.7729754809237
80.94068820647216,764.6393008825645,626.7359393880683
68.9168064527642,756.8884379477192,614.8083188448655
69.70780031917118,753.2245975944895,638.3800788240634
64.95418924913197,760.7521426786926,610.811031289992
80.7771257259105,760.735827219285,622.8222685626591
72.27932066505892,764.4588111128674,599.1342609351818
80.69514054238707,768.4387634921202,618.8698485211567
72.85189131864603,768.4642563974447,614.8276934529122
64.59953195025825,768.3867579652584,599.0057766923467
72.52476635752271,760.6583287870986,607.0003518020935
77.14153151178027,772.4064792768173,626.6523226586042
80.83147660006222,768.4734338433615,622.7967756573346
80.804352148797,764.6046305313232,622.8090122518903
84.16717227595561,752.8656574875213,611.1251038835892
80.72236696527358,772.3075668041586,618.857611926601
80.74949141653879,776.1763701161968,618.8443556158322
84.49419526545763,760.6715850978674,618.9534652506209
95.53639622093172,764.3150311268375,603.4078915837723
84.52101380185896,783.8497346188557,614.9510791146824
88.51085742837769,783.8548331999206,618.9351103587873
92.25556127729654,768.3500481815911,619.0432002773629
84.82132022658095,768.4775127082135,626.7808069014394
96.02738957748059,756.7140664753,619.1390536013828
87.74749787134242,772.0771109400255,599.3402436102033
80.96822054422256,749.1977382694397,630.7128326186823
77.16916582115198,756.9649166636925,630.6302356054312
84.79450169017963,745.299363187225,630.7831930373778
76.43303268700322,749.0570174320487,611.0221125460785
76.51501787052665,741.3540811592135,614.9745325875809
68.9172143392494,737.5790917387692,618.7974486700351
76.54183640692797,764.5322306802018,610.9721464516426
80.15010222655036,748.9927753106311,607.1533092340402
81.13178302478421,753.1012119327191,634.6265034440916
87.965819112541,764.4078253022185,607.2185710716709
84.16676438947042,772.1750036964713,607.1359740584196
76.65094604171661,760.6970780031918,614.9113101823763
77.06005618636334,760.8000693407025,626.6910718746974
84.22152315010733,760.6032641115978,611.0996109782649
76.65094604171661,760.6970780031918,614.9113101823763
84.7125165066562,753.0033191762733,626.8317927120883
84.33073475651727,756.7691311508008,615.0397944252115
88.37482728556644,764.5108166397292,618.9983327639918
92.93724156567228,768.5203407891585,638.6768162420399
80.74989930302398,756.8670239072467,622.8345051572148
84.73974292954271,756.8711027720987,626.8185364013195
96.00026512621538,752.8452631632617,619.1523099121515
73.0702125598446,760.7949707596376,622.7060209143796
72.7426797122361,772.2994090744546,610.8885297221784
84.13953796658392,768.306200384433,607.1482106529753
92.22833485441004,764.4812448695529,619.0564565881316
84.52101380185896,783.8497346188557,614.9510791146824
68.20749185501676,772.1576685208507,591.1978096495747
95.86352118205505,772.1199390209705,611.235233234591
80.12256988879996,764.4333182075429,603.1764160034263
76.43262480051803,768.3663636409988,607.0329827209089
95.7270831527586,772.0862883859423,607.3093258146258
88.5656161890146,772.282073898834,622.8997669948454
92.55545981553335,772.2871724798989,626.8837982389502
89.27452290027686,776.3221895346526,642.5201266487537
88.04780429606443,756.7048890293833,611.1709911131733
91.65576420082292,760.4757995849756,603.3630240704013
84.57618044898105,752.9686488250321,622.9048655759102
76.02402451397776,748.954026094538,599.2423508537574
80.2589059464751,764.4679885587842,607.1033431396042
76.65053815523142,780.0064242121418,610.9211606409937
85.12121876481775,772.4146370065212,634.6214048630267
65.11775172969364,764.6556163419721,614.7247021154013
72.38843029984756,760.6246781520704,603.0734246659156
80.04058470527653,772.1362544803782,599.2250156781369
76.73293122524002,752.9941417303565,618.8627105076658
84.82132022658095,768.4775127082135,626.7808069014394
87.93859268965448,760.5390219901802,607.2318273824395
80.5864387940836,752.9645699601801,618.9208343318055
72.74308759872127,752.9890431492917,614.878679263561
87.965819112541,764.4078253022185,607.2185710716709
73.23377504040626,764.6984444229172,626.6196917397889
91.76487383561155,756.6406469079657,607.302187801135
84.385085630669,764.5067377748774,615.0143015198871
84.54864811123065,768.4091917219439,618.9279723452963
83.89409227412013,772.1066827102019,599.2821197860636
84.385085630669,764.5067377748774,615.0143015198871
80.53157806182541,764.5363095450537,614.9561776957473
85.39389088016806,772.4829579927907,642.4742394191696
80.64078966823534,760.7011568680437,618.8953414264811
77.06005618636334,760.8000693407025,626.6910718746974
85.09358445544606,787.8551799034329,630.6445116324128
80.12256988879996,764.4333182075429,603.1764160034263
84.19388884073562,776.0438070085096,607.1227177476509
76.26906231995638,764.4628899777192,603.1182921792866
92.93724156567228,768.5203407891585,638.6768162420399
84.9576562842561,768.5121830594546,630.7077340376175
76.73252333875483,772.3034879393066,614.8735806824961
81.10425068703381,768.5417548296309,630.6496102134777
88.32006852492952,776.0825562246027,615.0336761279336
91.49220172026126,756.5723259216961,599.448333528779
76.54183640692797,764.5322306802018,610.9721464516426
79.90424864760138,772.1026038453499,595.2980885419589
103.2156750776259,779.6954107671836,599.546226285225
84.52142168834415,764.5403884099056,618.9402089398521
81.26771119597417,772.4442087766976,634.563281038887
76.21471144580465,756.7263030698558,603.143785084611
84.24874957299384,764.4720674236361,611.0873743837091
84.93042986136959,764.6433797474164,630.7199706321732
88.18414035373956,756.7395593806244,615.0968985331383
80.91386967007084,741.4611513615762,630.7383255240068
84.57618044898105,752.9686488250321,622.9048655759102
76.81491640876345,745.2901857413083,622.8151305491682
84.46707081419243,756.8027817858291,618.9657018451766
87.82948305486585,764.3741746671902,603.2926636517059
88.10215517021614,764.4424956534598,611.1454982078488
76.67817246460311,764.5658813152301,614.8980538716077
76.21471144580465,756.7263030698558,603.143785084611
88.02016998669272,772.145431926295,607.1930781663464
88.23849122789129,764.476146288488,615.0714056278139
80.2316795235886,760.5991852467458,607.1155797341601
85.06686789066603,764.6770303824446,634.6468977683512
87.80225663197933,760.505371355152,603.3049002462616
88.81075596661451,787.7919574982284,626.7757083203745
76.59659516756489,752.9594713791153,614.9368030877008
84.19429672722082,756.7344607995595,611.1128672890335
79.95900740823829,760.5308642604764,599.262745178017
88.2657176507778,768.3449496005262,615.0591690332582
88.21136677662608,760.6083626926627,615.0846619385826
84.30350833363076,752.9003278387626,615.0520310197672
80.61356324534883,756.8333732722184,618.9075780210369
64.89943048849506,772.3238822635661,606.8463746539339
76.78728209939175,760.7317483544331,618.8372176023413
84.35785920778248,760.6379344628391,615.0265381144428
77.19639224403849,760.8337199757308,630.6169792946623
69.13512769396279,749.2191523099123,622.686646306333
87.91146823838928,756.671238394355,607.2440639769952
84.46707081419243,756.8027817858291,618.9657018451766
69.10759535621237,764.659695206824,618.7097530757192
88.92027348788832,764.6474586122683,634.7050215924909
81.32257192823239,760.872469191824,638.5279376749452
88.21136677662608,760.6083626926627,615.0846619385826
80.53157806182541,764.5363095450537,614.9561776957473
73.23377504040626,764.6984444229172,626.6196917397889
72.82466489575951,764.5954530854065,614.8409497636809
80.66791411950055,764.5699601800819,618.8831048319253
76.59659516756489,752.9594713791153,614.9368030877008
87.965819112541,764.4078253022185,607.2185710716709
72.25209424217242,760.5900078008292,599.1464975297375
72.36120387696104,756.7558748400321,603.0866809766842
95.23649768269492,760.3768871123168,595.5672936221849
76.21471144580465,756.7263030698558,603.143785084611
84.79409380369444,764.6087093961751,626.7940632122081
80.88623536069913,756.901694258488,626.7614322933928
87.965819112541,764.4078253022185,607.2185710716709
80.64119755472053,741.3918106590937,622.8854909678637
72.98863526280637,749.1895805397359,622.7437504142598
88.70236013317495,753.0073980411253,630.8158239561931
84.63063329475408,760.7062554491085,622.8793726705859
88.67472582380324,768.447940938037,626.8389307255792
92.11922521962138,768.3153778303499,615.1172928573978
72.93387650216945,760.7613201246094,618.7801134944145
84.03042833179528,772.141353061443,603.2090469222417
87.6931469971907,764.339504315949,599.3657365155278
80.7771257259105,760.735827219285,622.8222685626591
92.22833485441004,764.4812448695529,619.0564565881316
81.04979784126078,760.8041482055545,630.6751031188021
88.07503071895093,760.5736923414215,611.1577348024045
96.38163898986913,768.3887973976842,626.9541586576456
76.95084457995341,764.6342023014996,622.7519081439635
87.965819112541,764.4078253022185,607.2185710716709
84.385085630669,764.5067377748774,615.0143015198871
79.84989777344965,764.3649972212735,595.3235814472832
95.64509796923517,779.7892246587776,603.3569057731233
77.11440706051506,768.5376759647792,626.6655789693729
77.14193939826546,753.0961133516544,630.6424721999869
80.64078966823534,760.7011568680437,618.8953414264811
72.98863526280637,749.1895805397359,622.7437504142598
80.36842346774894,741.3234896728242,615.0316366955077
84.57618044898105,752.9686488250321,622.9048655759102
88.15691393085305,752.8707560685862,615.110154843907
76.67817246460311,764.5658813152301,614.8980538716077
76.75974976164134,776.1722912513449,614.8603243717274
87.91106035190408,775.980584603305,603.2539144356126
84.54824022474546,787.718537930894,614.9378228039137
84.33032687003208,776.0784773597509,611.0496448838289
87.82948305486585,764.3741746671902,603.2926636517059
91.92843631617322,760.5441205712451,611.2158586265442
81.13178302478421,753.1012119327191,634.6265034440916
91.68288865208812,764.3446028970138,603.3497677596325
88.89314903662311,760.77865530023,634.7172581870466
73.31576022392969,756.995508150082,630.5721117812914
84.54905599771584,749.0998455129939,622.918121886679
76.81491640876345,745.2901857413083,622.8151305491682
84.76696935242923,760.7399060841368,626.8062998067638
81.3773306888693,749.3007296069505,642.4925943110034
87.85701539261625,748.9336317702785,607.2695568823198
87.91146823838928,756.671238394355,607.2440639769952
85.17597752545468,760.8428974216476,638.5860614990848
65.52726976082558,745.4482417543198,630.4946133491051
100.86247597293674,760.7919116109988,646.6703716355738
76.32392305221458,752.8911503928457,607.0829488153448
76.81450852227826,764.6005516664713,618.8249810077856
80.88623536069913,756.901694258488,626.7614322933928
73.45209628160484,757.0291587851102,634.4990389174694
72.63397796393265,756.8241958263015,610.9395155328273
76.76015764812654,756.8629450423948,618.8504739131101
72.74308759872127,752.9890431492917,614.878679263561
68.6441343374139,756.8190972452367,606.9544645725096
87.99304553542751,768.2766286142568,607.2063344771151
88.37452137070255,783.8201628486793,615.0081832226092
73.3428846751949,760.8632917459072,630.5598751867356
76.35104750347979,756.7599537048841,607.070712220789
80.42246842703676,768.3704425058507,611.0170139650136
65.93587004736582,764.8605793007807,638.2842255000435
80.5864387940836,752.9645699601801,618.9208343318055
84.43943650482072,772.2433246827409,614.9888086145626
96.02738957748059,756.7140664753,619.1390536013828
92.1739839802583,756.7436382454764,619.081949493456
91.98278719032494,768.2817271953217,611.1903657212199
84.19429672722082,756.7344607995595,611.1128672890335
88.53838976612809,768.4132705867958,622.9120035894011
69.08077681981106,741.4815456858357,622.7121392116575
88.92068137437352,745.3381124033182,638.6941514176605
84.385085630669,764.5067377748774,615.0143015198871
81.21336032182245,764.707621868834,634.5887739442114
76.70529691586832,768.4346846272683,614.8858172770518
83.51261643884509,756.5641681919923,591.4802710405695
80.2316795235886,760.5991852467458,607.1155797341601
83.70330337067196,764.3354254510971,595.381705271423
73.47922073287006,760.8979620971485,634.4857826067006
80.39524200415025,764.5016391938125,611.0292505595693
92.01001361321146,772.1505305073599,611.1781291266642
84.24874957299384,764.4720674236361,611.0873743837091
72.66110241519786,760.6929991383399,610.9262592220585
87.80184874549414,779.814717564102,599.314750704879
84.71210862017101,772.3126653852235,622.8416431707057
91.84645113264979,768.2470568440804,607.2634385850419
65.74518311553895,757.0883023254629,634.3827912691899
69.24433930037272,745.3839996329023,626.6258100370668
80.50445361056019,760.6675062330154,614.968414290303
88.32047641141472,756.7732100156527,619.0238256693162
88.34770283430123,760.642013327691,619.0105693585476
80.66791411950055,764.5699601800819,618.8831048319253
92.63734302743548,764.5832164908508,630.8362182804526
100.15356926167449,756.7528156913932,627.0500119816655
92.80090550799714,768.4866901541302,634.7498891058619
100.26237298159923,772.2270092233332,627.0000458872296
84.35785920778248,760.6379344628391,615.0265381144428
95.59074709508344,772.051618034701,603.3823986784479
92.50100696976033,764.5495658558225,626.9092911442746
88.07462283246574,779.8830385503716,607.168604977235
76.3782739263663,760.6287570169223,607.0574559100203
80.2589059464751,764.4679885587842,607.1033431396042
79.9585995217531,779.8402104694264,595.2725956366344
73.3428846751949,760.8632917459072,630.5598751867356
99.68970035639083,768.2215639387559,611.3055936532863
83.59378584939813,787.4789046208441,587.4523919993067
80.34048324351333,776.074398494899,607.0656136397241
91.68258273722424,783.6539491059639,599.3606379344629
76.07796750164431,776.0009789275646,595.2277281232633
95.61756563148477,795.2297675556894,599.3800125425095
72.57881131681054,787.7052816201252,602.9847093553865
88.07462283246574,779.8830385503716,607.168604977235
91.79169237201288,779.8187964289539,603.2998016651967
87.93818480316929,779.8493879153433,603.2416778410569
84.11241351531869,764.4384167886078,607.160447247531
92.17357609377311,776.0529844544265,615.0917999520734
92.06477237384837,760.5777712062734,615.1427857627223
72.87911774153254,772.3330597094829,614.8154568583564
80.53157806182541,764.5363095450537,614.9561776957473
72.66110241519786,760.6929991383399,610.9262592220585
76.37786603988111,779.9381032258723,603.0683260848507
91.49179383377607,775.881672130646,595.4592037036093
80.85870302294873,772.3422371553997,622.783519346566
72.7426797122361,772.2994090744546,610.8885297221784
95.89064563332026,775.9887423330088,611.2229966400351
80.14938842520127,787.6114677285312,599.174029867488
84.35745132129729,779.9472806717891,611.0363885730602
92.14634967088661,772.1841811423882,615.1040365466292
76.29588085635768,787.6410394987076,599.1159060433482
80.53117017534022,783.8456557540037,610.9660281543647
91.62772200496603,795.2256886908374,595.3959812984048
87.4200669953552,783.5805295386295,587.5227524180021
83.94844314827185,779.8442893342784,599.2576465969521
88.783529543728,783.9231541861901,626.7879449149303
91.68258273722424,783.6539491059639,599.3606379344629
76.5961872810797,772.2688175880653,610.9466535463181
72.82425700927432,783.9047992943565,610.8508002222982
95.80866044979683,783.692698322057,607.2715963147457
87.4475993331056,768.1399866417177,591.499645648616
88.89314903662311,760.77865530023,634.7172581870466
72.17051694513418,748.9835978647143,599.1852467458308
72.14288263576248,764.4251604778391,595.2073337990038
99.47137911519226,775.8908495765629,603.427266191819
88.45609866774078,795.4265727847941,614.9704537227291
88.04698852309404,795.3235814472833,603.1906920304081
91.76405806264117,795.2593393258657,599.3218887183698
83.8116992041115,799.1199849082001,591.3405699193916
91.8185109084142,802.9969459499423,599.2974155292583
91.8460432461646,787.5564030530305,603.2743087598723
79.41325529105251,779.7035684968874,579.5669265243483
95.31766709324796,791.2926432573815,591.5394145809222
91.46426149602567,791.3232347437709,591.4823104729954
83.70289548418677,783.644771660047,591.3915557300404
76.02361662749257,768.263372303488,595.2532210285879
72.60593576807575,791.5740849321635,602.9724727608308
76.26906231995638,764.4628899777192,603.1182921792866
72.47041548337099,752.9207221630221,607.025844707418
88.42928013133947,772.2484232638058,618.9728398586674
79.79544492767664,756.6273905971968,595.3490743526078
80.61356324534883,756.8333732722184,618.9075780210369
83.48498212947338,772.0047110889041,587.5033778099556
83.5122085523599,775.8735144009423,587.4901214991868
99.52583196096528,783.6284562006394,603.4027930027074
104.0610198181846,783.7691770380304,623.0935130753112
115.48490055217634,802.9551375852101,615.3497881539568
101.70659705403988,822.7947362249088,658.2472098015123
94.10889549438392,819.0197468044645,662.0711456001795
92.91011711440707,764.6525571933332,638.6890528365957
110.9777548908139,729.4458352240572,611.6064099361149
170.45474244517752,593.256616683577,577.6345643007551
106.41554455395064,744.7446375673651,587.9387966328972
83.94966680772743,721.9162507074282,611.2260557886741
103.81832735949587,671.7135821100989,639.1662800242693
88.64882503199361,706.6510989991486,638.8205962280698
76.84204086002866,749.1589890533465,622.8018742383995
73.12415554751114,787.8419235926642,618.6913981838854
84.73851927008714,814.8001611151617,614.8501272095976
72.68751306511399,803.1804948682782,602.9347432609505
72.08812387512556,775.9969000627127,591.2436968791586
75.64132501924715,791.3395502031785,579.4710732003284
79.54959134872766,779.7372191319157,583.4928339443134
68.12550667149333,779.8606047936861,587.2464093242851
78.32236288640873,779.4292648355963,548.1545685835632
110.049813137004,810.3123900618458,568.1481443714215
98.92481122503608,833.6822462308741,575.752168171598
98.76124874447441,829.7797922838074,571.8384973461887
103.1606104021251,829.8868624861702,587.6022902826144
95.83507109971296,826.1801940519954,599.2790606374247
87.99222976245713,806.8953210321569,599.2260353943499
110.97673517460093,806.6832200598574,595.6468314867973
80.04058470527653,772.1362544803782,599.2250156781369
99.33504305751711,775.8571989415346,599.5013587718539
121.82855511311205,763.9356966956097,584.1801226718605
121.5022459249591,756.1297690852637,576.3517613048289
143.66781724646034,775.0210316468928,545.2228844712516
136.86019180861967,786.8915480821688,568.6294504239471
118.13820213834491,787.1770686218026,584.0465398479604
118.98354687890362,810.5601811015995,603.6026573804511
119.41998541805818,814.5319757511485,615.3701824782164
129.00735725247665,849.7009682205444,662.4902489637135
68.77129294917225,800.3283486205789,712.7744948580811
45.26948550218475,765.6549382306905,708.6150724253441
94.57347820101667,768.9312864229886,685.794843295111
87.65745692973647,765.3276093263246,709.2513753422423
91.12948866330501,749.7545033217256,701.506630704675
91.32099136810227,718.9070681629303,713.3873443020808
76.31668306710245,699.8190003721965,728.9257799554385
87.11333635849144,707.2619090107224,705.5141154216782
85.8865157826577,687.6446085054531,674.1649798860977
73.31728979824915,679.7571035980687,646.530670514396
87.6136091325784,656.1863633350839,619.3521742898952
60.585317106249335,629.3484523257179,622.9629894000501
40.88185058098332,625.5255362432636,610.9068846140119
29.484584440150307,648.8270714260223,610.6570541418324
7.317881233652676,668.5545012822932,633.8066516088574
-12.194888162624343,672.5038621751568,625.6519810536729
-16.75771032921538,687.8026645184647,601.9843677504551
-30.53570791248796,707.6422631581632,644.8817893980106
-21.711185776998263,731.0345530838769,672.4069891349238
-23.928864596982663,750.7833969806203,715.4777625386856
-15.376708661979373,754.7980197111145,739.1402772608384
0.5014056787995901,723.9006184578832,759.1053009947333
4.163338142994805,754.7174621302893,747.2827112214671
22.585694401248134,731.1854710833976,728.0151733772492
49.287677239424276,711.5997817807305,724.5562959828281
60.98473994687279,692.2353708962796,732.645704700382
75.28105928120205,668.6646306332948,705.4672084758812
63.72104643277776,649.4439997348738,709.2840062610577
62.76659205743043,649.2043664248241,681.7975557402375
70.06449705047086,649.0422315469606,670.134041696196
90.44974583573394,653.036459953195,701.8227427306981
82.00629164903408,664.4970504708541,678.1092421978964
86.84097015800504,687.8842418155028,701.6514304069178
97.31060045989203,687.5212228436827,670.4124242223389
94.192818138712,714.769059770666,685.9722739161691
63.06526693621166,711.070549066195,677.66872479389
67.13668785976864,722.6810378671616,681.6150265381145
67.0274762533587,726.5151708279586,677.6758628073808
59.456491258482764,745.9183309285027,677.4974124701097
55.68507084478391,738.2449664258437,681.3917086874724
40.62590181152586,730.7286382199835,692.9644679885588
44.28862047692128,722.9278091907023,689.1211575818451
55.46715749007051,726.6049058547007,677.5025110511746
55.05845523190896,707.19256830824,669.7128989002362
63.1744785426216,707.235396389185,681.6078885246237
63.7198227733222,707.3720383617241,697.3145773531228
58.77552477145611,707.1283261868223,665.8440955881979
78.75176538369372,711.019563255546,685.7530349303789
74.32619701936952,687.7343435321951,673.9916281298915
93.53867018808667,699.1572045499738,670.316570898319
94.13846726456028,707.0314531465893,685.9967471052807
105.8077936910158,703.1075851590504,690.1102823084336
97.44652863108199,706.865239403874,670.3492018171344
78.53385202898035,699.3795026844031,681.8648570102941
82.44171047197565,707.0865178220902,681.8974879291094
83.42339127020952,711.1949544441783,709.3706821391607
60.35700264616358,719.1110114055259,708.9984857214238
60.329776223277065,715.2422080934876,709.0107223159796
43.825567344608004,695.777865020165,681.3570383362311
55.086089541280664,691.7520254113281,673.68979213085
63.22882941677332,714.9730030132615,681.5823956192993
70.52704032467764,695.5015219264479,673.9080114004274
78.94337006011229,680.1721280967507,697.6337485277849
101.59983276654108,710.7727919320054,678.2469038866484
77.63303472643564,745.4961684163297,646.3736342175973
54.70379793303524,714.8271835948057,657.9076443025907
74.95271066062315,718.786741649799,685.6704379171277
65.93627793385102,745.5512330918306,642.2743750414261
59.592827316157916,745.953001279744,681.4233198900747
58.91155491426737,726.4723427470135,665.7808731829933
67.38213355223242,718.8805555413929,689.4811174050262
66.78233647575881,711.0063069447774,673.7999214818516
51.39573656651355,714.9933973375211,673.55620930695
51.20494766306537,707.2221400784163,669.6547750760964
43.33457398805913,703.3788296717024,665.6248566024076
41.444020129198044,730.9346208950051,716.5239913732009
105.83430631255322,745.5950808889887,682.1177466311126
100.2639025559187,694.989624387533,642.9586046203342
81.13586188963613,560.0067301270058,674.524939709279
51.344138926136864,572.0903672507942,701.509689853314
46.35864438926647,843.1656070115688,724.0688716330246
50.975817430009236,835.6044112923374,747.7109920309179
56.99499829197536,692.2302723152147,728.6616734562772
41.66387094471609,646.0279504213978,740.361897283986
41.146059051765896,630.449745835734,728.6321016861008
52.079456287315246,618.617978616551,713.1375138299013
48.144065506569525,626.3504866595628,709.1279896804721
40.245649635706386,657.2570653587107,697.1320481509996
36.44608505452933,684.3346096781266,693.0593015963658
39.726614083300625,699.6079191161101,673.4328236451796
44.207043179883044,711.3213992545875,689.1588870817252
59.81155644384169,718.9743694329868,693.2917968929248
52.45899466178563,730.7082438957239,700.9916740171211
67.00035180209349,722.6463675159204,677.6891191181495
55.357945883660584,730.4390388154977,673.5633473204408
70.22602009860657,749.4924362549904,654.0990042471182
92.12034690745567,710.3873392034998,627.0867217653328
59.8939495138503,691.9610672349886,701.2333467595969
63.06567482269685,691.7601831410319,681.6588743352726
70.88139170868747,707.1762528488323,681.7241361729032
63.146844233249894,722.6759392860968,677.6309952940097
74.32538124639913,726.3530359500952,666.0123487633392
73.9162711017524,726.2500446125845,654.2325870710182
67.38172566574723,738.189901750343,685.4909678636436
82.74120112372728,730.332988329348,685.747936349314
74.68003854527286,718.7184206635294,677.8165836447718
63.692596350435686,703.5032350496857,697.3268139476785
67.57333034216579,707.3424665915477,697.3716814610494
67.40976786160412,703.4400126444812,693.4580106356402
44.26180194051996,699.749659669714,693.1235437177835
66.91877450505525,711.0399575798057,677.7268486180297
71.50872112291151,699.609958548536,701.3812056104787
74.816374602948,718.7520712985577,681.7435107809498
62.81971927212658,714.8700116757508,669.8026339269783
70.85375739931577,722.6167957457441,677.7462232260763
58.85710206849435,718.7347361229371,665.8063660883176
79.13324121896878,726.5630974899686,693.5559033920861
66.50925647392332,730.2473321674579,661.956937384326
67.3273747915955,730.4522951262664,685.516460768968
73.9711318340106,714.678305027711,658.1972437070765
63.25595386803853,718.8418063252998,681.5701590247435
74.59846124823463,707.1120107274147,677.8553328608649
67.19144662040556,711.1082785660751,685.5796831741727
74.38014000703605,714.7812963652217,669.9770053993974
85.66778665497394,714.6232403522101,662.2965028832476
63.06526693621166,711.070549066195,677.66872479389
55.222017712470624,711.0950222553065,673.6265697256455
70.9085161599527,711.0450561608706,681.7108798621344
74.43449088118777,722.5189029892982,669.951512494073
63.55585240627534,722.7789306236076,689.4107569863309
58.966313674904285,714.90060316214,669.7455298190515
66.40055472561987,714.7721189193048,662.0079231949749
67.21867304329207,714.9770818781134,685.5674465796169
62.98328175268823,718.7734853390302,673.7173244686005
71.01731987987743,726.5192496928106,681.6609137676985
81.9779435383133,718.556285785666,666.1530696007302
66.91836661857006,730.3493037887557,673.736699076647
66.70045326385667,718.7092432176125,669.8485211565622
73.9162711017524,726.2500446125845,654.2325870710182
66.15500706153477,718.5726012450735,654.1418323280632
54.78578311655867,707.1242473219704,661.8600643440932
66.53689078329501,714.8067892705461,665.9348503311529
94.08370850392336,718.6031927314629,682.0331101854355
63.33793905156196,711.1388700524644,685.5215593500329
66.64600041808366,710.9716365935361,669.8740140618867
79.13324121896878,726.5630974899686,693.5559033920861
56.203698510704484,715.2034588773945,701.0997639356968
58.502852656105816,707.0600052005527,657.9912610320548
86.62346468977684,656.9348350354097,701.7523823120027
63.28440395038062,664.7825710104878,693.5263316219097
71.29039988171293,707.27822447013,693.5028781490112
41.38915939693984,742.5063604798786,712.5593347371428
63.74623342323832,749.8595340916623,689.3220416758018
78.42474239419171,703.2136356452,677.9256932795604
67.21867304329207,714.9770818781134,685.5674465796169
62.54704715677627,714.8016906894812,661.9497993708352
66.18253939928519,703.1320583481618,658.1187255586772
74.92599409584314,695.6085921288106,689.672824053066
70.66307046748891,714.8455384866392,673.8447889952226
63.06526693621166,711.070549066195,677.66872479389
59.211861338989365,711.1001208363714,677.6106009697502
66.2093579356865,726.3102078691501,654.1163394227387
55.68547873126909,718.9356202168938,685.380838512642
78.50631969122995,714.8200455813148,677.8879637796801
82.16863047014017,726.3275430447708,670.0545038315838
62.95615730142302,714.904682026992,673.7295610631562
70.44474922629033,722.5138044082333,665.9664615337553
62.21961628078906,726.3051092880853,650.1323081786339
70.00841265875708,718.5430294748973,654.199956152203
77.96046560242286,733.9927498177258,658.1911254097986
73.88873876400199,741.6916072257092,650.2556938404043
74.70726496815936,722.5872239755677,677.8043470502159
58.31175783779375,718.5980941503981,650.0996772598187
74.65281212238635,714.8496173514911,677.8298399555405
70.9085161599527,711.0450561608706,681.7108798621344
70.88139170868747,707.1762528488323,681.7241361729032
82.65962382668904,718.7275981094463,685.7856658491942
70.79940652516404,714.8791891216675,677.7717161314007
67.38213355223242,718.8805555413929,689.4811174050262
58.58442995314405,718.6664151366676,657.9525118159617
58.993540097790785,718.7683867579653,669.7322735082827
63.33793905156196,711.1388700524644,685.5215593500329
70.00841265875708,718.5430294748973,654.199956152203
62.95615730142302,714.904682026992,673.7295610631562
62.683383214451425,714.8363610407225,665.8767265070132
59.129876155465944,718.8030571092066,673.6592006444607
63.528727955010126,718.9101273115692,689.4229935808866
66.20976582217169,707.0008616602,658.1064889641214
86.24045928018234,718.6286856367874,677.990955117191
74.40736642992256,718.65009967726,669.9637490886287
85.96768519321074,718.5603646505178,670.1371008448349
62.95615730142302,714.904682026992,673.7295610631562
58.502852656105816,707.0600052005527,657.9912610320548
59.45730703145315,707.2996385106026,685.4766918366619
66.42767917688508,718.6409222313431,661.9956866004192
67.0551105627304,711.0746279310468,681.6527560379947
69.92693733334015,706.9366195387825,654.2376856520831
66.78233647575881,711.0063069447774,673.7999214818516
66.10065618738305,710.834994620997,654.1673252333876
67.0551105627304,711.0746279310468,681.6527560379947
58.93908725201777,711.0317998501017,669.7577664136072
70.77218010227755,711.0103858096293,677.7849724421694
66.67322684097017,714.8404399055744,669.860757751118
65.9094593974497,722.3730835708424,646.2767611773644
54.894484864862115,722.5994605701235,661.8090785334442
61.83773255902883,730.0719409788256,638.3403098917572
74.29815482351263,722.4842326380568,666.0245853578949
73.26171526464185,729.9485553170554,634.5867345117854
82.08664528661674,734.0314990338189,666.1020837900813
66.91877450505525,711.0399575798057,677.7268486180297
77.8245374312329,714.6487332575344,658.2543478150031
82.41417813422525,722.527060719002,677.9195749822825
70.66307046748891,714.8455384866392,673.8447889952226
66.67322684097017,714.8404399055744,669.860757751118
70.25396032284216,714.7425471491284,662.0660470191146
70.6358440446024,710.976735174601,673.8580453059915
82.25061565366359,718.6246067719354,674.0059041568733
82.35972528845222,714.7904738111384,677.9450678876069
71.01731987987743,726.5192496928106,681.6609137676985
73.50726292872695,726.1480729912867,642.4528253786972
69.62663090861814,722.3088414494247,642.4079578653262
74.10706000520057,734.0223215879022,658.1340213018717
51.123064451163245,714.9250763512515,665.7033747508069
62.792186934376176,730.3115742888755,665.8257406963643
83.61367031555119,738.2755579122331,709.2819668286317
86.34916102848578,734.1038988849403,677.939969306542
67.00065771695738,703.3370213069703,681.6782489433192
63.283180290925046,722.710609637338,681.5579224301878
63.09249335909817,714.9383326620202,677.6564881993341
70.30831119699388,722.4801537732051,662.0405541137902
78.9425542871419,718.7908205146509,689.6544691612326
74.40736642992256,718.65009967726,669.9637490886287
62.43793752198764,718.6368433664911,658.0106356401014
58.69364155955398,714.8322821758705,661.8926952629084
66.7275777151219,722.5780465296509,669.8352648457935
66.80915501216013,734.1844564657656,669.7975353459133
73.53438737999217,730.0168763033249,642.4405887841414
55.248836248871946,734.2731717762947,669.6241835897071
62.54663927029108,734.1110368984312,657.9606695456655
62.43752963550245,737.9461895754413,654.0215058149317
66.34569399336165,726.3438585041783,658.0432665589167
74.70726496815936,722.5872239755677,677.8043470502159
78.3699836335548,714.7853752300736,673.9610366435022
62.87458000438479,703.2982720908772,673.7672905630365
78.77899180658024,714.8883665675843,685.7407983358232
74.16222665232267,703.1412357940786,666.0878077630996
74.16263453880786,683.8308698689156,670.0779573044823
59.51165790560487,715.0372451346791,685.4511989313376
70.52704032467764,695.5015219264479,673.9080114004274
69.98169609397705,695.3648799539089,658.2023422881413
66.94589895632046,714.9087608918439,677.7135923072609
67.43658639800545,726.6181621654694,689.4556244997019
55.658252308382586,715.0668169048555,685.3940948234108
67.5729224556806,726.6518128004976,693.3825516358798
86.32193460559927,730.2350955729021,677.9522059010978
74.189045188724,726.3193853150669,662.0854216271613
66.34569399336165,726.3438585041783,658.0432665589167
85.77659037489867,730.0984536003631,662.2465367888118
73.50726292872695,726.1480729912867,642.4528253786972
81.84109762253166,737.8309616433747,658.2370126393826
63.037734598461256,726.5110919631068,673.691831563276
70.74423987804195,745.7602749154911,669.8179296701728
77.93293326467244,749.4332927146376,654.2142321791846
66.10024830089786,730.144340829947,650.177175692005
50.877516787078164,718.7255586770202,657.8372838838952
70.03563908164358,722.4118327869355,654.1877195576473
63.283180290925046,722.710609637338,681.5579224301878
63.22882941677332,714.9730030132615,681.5823956192993
70.36317192925209,710.9084141883314,666.0052107498484
66.91836661857006,730.3493037887557,673.736699076647
51.123064451163245,714.9250763512515,665.7033747508069
74.59846124823463,707.1120107274147,677.8553328608649
74.59805336174944,726.4213569363646,673.8651833194823
70.41752280340381,718.6450010961951,665.979717844524
82.16863047014017,726.3275430447708,670.0545038315838
62.84694569501309,718.7388149877889,669.7903973324225
85.50432614603356,710.7207864051435,658.3828320578384
85.3131293561002,722.2578556387758,650.4922680018152
70.9357425828392,714.9138594729088,681.6986432675787
74.62527978463595,730.2901602484029,673.8529467249266
66.18223348442129,722.4414045571119,654.1295957335075
77.68820137355775,714.6150826225062,654.3284403950381
78.20601326650794,730.1922674919571,666.0572162767103
74.16181876583748,722.4505820030286,662.0986779379299
78.3699836335548,714.7853752300736,673.9610366435022
71.09930506340086,718.8163134199752,685.612314092988
74.27092840062612,718.6154293260187,666.0378416686636
70.55385886107896,718.6796714474362,669.905625264489
58.966313674904285,714.90060316214,669.7455298190515
66.56401523456023,718.6755925825843,665.9215940203842
66.80956289864532,714.8751102568157,673.7876848872959
62.84694569501309,718.7388149877889,669.7903973324225
66.64600041808366,710.9716365935361,669.8740140618867
82.2777401049288,722.4934100839737,673.9936675623175
66.64559253159847,730.2809828024862,665.8838645205041
78.9149199777702,734.2313634115627,685.6775759306186
62.683383214451425,714.8363610407225,665.8767265070132
78.20601326650794,730.1922674919571,666.0572162767103
74.40736642992256,718.65009967726,669.9637490886287
66.10065618738305,710.834994620997,654.1673252333876
62.11081256086431,710.8309157561451,650.1832939892829
54.513009029587074,707.0559263357009,654.0062100717371
70.19920156220525,726.3142867340019,658.1013903830565
62.92852299205133,730.3452249239037,669.7526678325423
70.96296900572571,718.782662784947,681.68538695681
70.96296900572571,718.782662784947,681.68538695681
62.54704715677627,714.8016906894812,661.9497993708352
58.502852656105816,707.0600052005527,657.9912610320548
75.0619222670331,714.9526086890019,689.6096016478615
70.96296900572571,718.782662784947,681.68538695681
74.73438941942459,726.4560272876059,677.7921104556602
62.874172117899604,722.6076182998272,669.7781607378666
85.64066220370873,710.7544370401718,662.3097591940165
70.39029638051731,714.7761977841567,665.9919544390797
62.71060963733794,718.7051643527607,665.8634701962444
59.538884328491385,718.9060484467174,685.4389623367817
55.16725895183371,722.6677815563929,669.6619130895873
66.56401523456023,718.6755925825843,665.9215940203842
78.31512290129659,726.3571148149471,669.996380007444
78.45156093059303,726.3917851661884,673.923307143622
66.59124165744674,722.5433761784096,665.9093574258285
74.70726496815936,722.5872239755677,677.8043470502159
62.46506197325285,722.5056466785294,657.9983990455456
78.56067056538167,722.5576522053913,677.8624708743558
62.71060963733794,718.7051643527607,665.8634701962444
62.71060963733794,718.7051643527607,665.8634701962444
74.54370248759771,718.6837503122882,673.8906762248067
73.9711318340106,714.678305027711,658.1972437070765
73.86192022760068,718.5134577047208,654.2580799763426
81.51407463302964,730.0250340330286,650.408651272351
78.91532786425539,714.9220172026126,689.6667057557883
58.55679564377235,734.1069580335794,653.9756185853478
79.26886347529484,765.215440542897,689.5025314454988
78.12321231001414,776.5138961826925,654.1255168686556
70.66103103506295,811.3922695313895,653.8960807207355
66.91755084559968,768.9690159228687,665.7574197100948
54.567461875360095,714.7935329597774,653.9817368826256
69.87248448756712,699.1990129147059,654.2631785574075
82.74201689669766,691.714295911448,693.7272157158664
70.90892404643787,691.7357099519205,685.701029403517
71.07289441348473,676.328817690037,693.604849770309
83.23341813973173,664.8039850509604,713.4485272748595
87.55079461385897,653.3056650334213,729.2500497111655
79.2984352454712,653.2281666012349,713.4291526668129
87.16891089209874,657.0714770079487,717.4580514242887
75.52732074663622,626.245455889626,721.3125787093453
80.22566319793202,649.5989965992466,740.9268200659757
75.33581804183896,657.0918713322084,709.4318651119395
79.02535524363572,672.4691918239155,701.5861685692872
75.717293877114,672.6354055666309,717.2347335736465
75.74441832837923,676.5042088786691,717.2214772628779
52.76001488785672,676.7173295671815,720.8017008866433
68.00997282456294,692.0049150321466,713.1283363839844
71.64505718058665,699.6436091835643,705.3081327466567
70.9085161599527,711.0450561608706,681.7108798621344
62.95615730142302,714.904682026992,673.7295610631562
75.22538277597344,718.8550626360684,693.5232724732708
85.09480811490162,729.9271412765828,642.6139405403477
70.44474922629033,722.5138044082333,665.9664615337553
66.89114019568355,726.4815201929304,673.7499553874158
62.71060963733794,718.7051643527607,665.8634701962444
55.030820922537266,722.6331112051517,665.7360056696223
79.51512494072901,722.7962657992282,705.3479016789628
63.09249335909817,714.9383326620202,677.6564881993341
66.67322684097017,714.8404399055744,669.860757751118
51.94118276883543,715.1310590262731,689.261878419236
62.683383214451425,714.8363610407225,665.8767265070132
71.91742338107306,719.0212763787839,709.1718374776301
70.9357425828392,714.9138594729088,681.6986432675787
63.63783758979877,715.0759943507722,693.3621573116202
55.767361943171224,711.2326839440584,689.3332585541444
66.7275777151219,722.5780465296509,669.8352648457935
58.748400320190896,703.2595228747841,665.8563321827536
55.68578464613299,699.6262740079437,689.3709880540247
58.88473637786605,703.2941932260253,669.7832593189315
71.45437024875979,691.8723519244595,701.4066985158031
70.3907042670025,695.4668515752066,669.9821039804624
66.89154808216874,707.1711542677674,677.7390852125855
82.05982675021542,710.8533495128307,670.1044699260196
70.90892404643787,691.7357099519205,685.701029403517
78.6698821717916,718.7224995283814,681.8016346050895
82.44171047197565,707.0865178220902,681.8974879291094
78.34275721066828,710.9165719180353,673.9732732380579
71.01772776636263,707.2099034838606,685.6500435928682
70.60861762171588,707.1079318625627,673.8702819005472
66.86432165928224,703.303370671942,677.7523415233542
74.7891481800615,714.8832679865194,681.7557473755055
70.82653097642927,718.7479924337058,677.759479536845
66.2374001315434,691.5603187632883,662.0833821947352
67.46411873575585,711.1776192685576,693.4325177303158
67.38213355223242,718.8805555413929,689.4811174050262
67.19144662040556,711.1082785660751,685.5796831741727
74.7891481800615,714.8832679865194,681.7557473755055
74.65281212238635,714.8496173514911,677.8298399555405
90.47574859916487,714.8333018920835,689.8410772282075
67.24620538104247,699.5365389812016,689.5443398102309
74.10787577817095,695.4036291700021,666.113300668424
63.09249335909817,714.9383326620202,677.6564881993341
67.19144662040556,711.1082785660751,685.5796831741727
74.7891481800615,714.8832679865194,681.7557473755055
63.03804051332514,707.2017457541567,677.6819811046587
69.98128820749186,714.674226162859,654.2121927467587
62.73814197508834,703.2646214558489,669.8413831430714
78.80621822946675,718.7571698796227,685.7275420250545
74.92558620935795,714.9179383377607,685.6826745116834
66.70045326385667,718.7092432176125,669.8485211565622
62.95615730142302,714.904682026992,673.7295610631562
67.13709574625383,703.3716916582116,685.6051760794971
70.96296900572571,718.782662784947,681.68538695681
70.49950798692724,710.9420648233597,669.9311181698134
78.75176538369372,711.019563255546,685.7530349303789
86.51313139553264,718.6970066230568,685.843789673334
86.48590497264613,714.8282033110186,685.8560262678898
70.36317192925209,710.9084141883314,666.0052107498484
52.05029240362408,711.2959063492631,693.2020618661828
63.06526693621166,711.070549066195,677.66872479389
59.43018258018794,703.4308351985643,685.4889284312177
66.64600041808366,710.9716365935361,669.8740140618867
55.46746340493442,707.2955596457507,681.4926605925572
75.17103190182173,711.117456011992,693.5487653785951
75.28024350823166,707.2833230511949,697.487929109329
58.28493930139243,695.4199446294098,654.1020633957571
82.19626477951186,710.887000147859,674.0313970621977
86.92213956855808,718.7999979605676,697.6235513656551
67.27302391744378,722.7146885021899,685.5419536742926
66.86432165928224,703.303370671942,677.7523415233542
70.74495367939103,707.141582497591,677.7972090367251
70.74495367939103,707.141582497591,677.7972090367251
70.88139170868747,707.1762528488323,681.7241361729032
74.7891481800615,714.8832679865194,681.7557473755055
74.7891481800615,714.8832679865194,681.7557473755055
59.348197396664524,711.1337714713997,681.5375281059282
78.3699836335548,714.7853752300736,673.9610366435022
62.60180591741319,703.2299511046076,665.9144560068934
74.84400891231971,703.3115284016459,685.7204040115637
82.19626477951186,710.887000147859,674.0313970621977
71.18129024692428,711.11337714714,689.5637144182775
79.35156246016734,718.8938118521617,701.4342308535536
82.93239791366064,718.7959190957158,693.6385004053373
69.89971091045363,703.0678162267442,654.2509419628518
74.48924964182468,710.9461436882117,673.9161691301312
74.2165775264744,710.8778227019421,666.0623148577752
74.65281212238635,714.8496173514911,677.8298399555405
70.9085161599527,711.0450561608706,681.7108798621344
63.7470491962087,711.2408416737622,697.301321042354
82.76883543309897,714.8924454324363,689.7248295799279
55.93133231021807,695.8257916821749,697.2360592047235
71.07207864051435,714.9475101079371,685.6245506875438
77.96087348890805,714.6834036087757,662.1812749511812
74.24380394936091,714.7466260139804,666.0500782632195
78.26077202714485,718.6205279070836,670.0218729127685
77.79731100834638,710.7799299454963,658.2676041257719
69.98128820749186,714.674226162859,654.2121927467587
82.63249937542382,714.858794797408,685.798922159963
67.0551105627304,711.0746279310468,681.6527560379947
70.85416528580096,703.307449536794,681.7363727674589
74.13459234295097,718.5817786909904,662.1109145324856
67.0551105627304,711.0746279310468,681.6527560379947
75.0619222670331,714.9526086890019,689.6096016478615
73.69835774703901,714.6099840414414,650.3433894347204
74.92558620935795,714.9179383377607,685.6826745116834
