acc_x[mg],acc_y[mg],acc_z[mg]
-935.3132823135323,350.69264223766527,173.3527759224608
-939.3299444764523,346.81976006077514,169.38098127291175
-931.3231327721496,350.69672110251724,177.33680716656556
-931.7871036490546,342.8571428571429,165.58253837956897
-928.0427057149996,346.6617040477635,161.700478756762
-943.6474229222009,339.0097535855772,157.56858866177546
-923.3713857433478,346.8370952363958,185.3181259655438
-919.1089719731,346.91051480373017,197.1549917657916
-927.4155802440182,339.09540974746733,181.35856791055053
-907.929823130223,331.27724554256554,189.5264947765037
-904.6493960730729,346.5515746967619,169.90103654153052
-912.8468947092025,334.90233667970205,158.04377641702317
-920.1990486047735,346.6362111424391,165.74263382500652
-938.975083234336,339.1851447742094,181.18521615434426
-927.2789382714792,339.13008009870856,185.2854950467285
-923.8618692417903,335.1287136789832,173.57609377310297
-919.8441873626571,319.6922496469233,181.53803796403463
-932.3051194852474,327.27995798769206,153.85274278168387
-920.4713128336385,327.2585439472195,161.8799488102461
-920.1439839292725,335.0644715575656,169.7072904610647
-924.0790687951544,323.48865310784015,169.68791585301813
-915.8815701590249,335.13789112489997,181.54517597752547
-911.7833306990666,331.30783702895485,189.46837095236398
-916.563760305507,334.9665788011197,161.91257972906143
-923.6161176344624,312.0188851442644,185.43131446518436
-904.6759086946105,342.68277138472365,169.91327313608625
-904.4576894250331,335.0134857469167,177.79160059755372
-920.0899389699847,342.8020781816421,169.68179755574025
-920.0899389699847,342.8020781816421,169.68179755574025
-927.9876410394988,335.08996446289,165.6651353928202
-932.3866967822855,334.98289426052736,149.9013424563944
-927.5787348380946,335.1929558004008,177.44489708514124
-927.7969541076719,323.55187551304476,173.5567191650564
-927.6327797973826,327.45534917632426,177.4703899904657
-908.4478389664157,335.00940688206475,173.80756935344894
-927.5787348380946,335.1929558004008,177.44489708514124
-943.2925616800846,312.06477237384837,173.36297308459058
-927.7418894321711,331.2894821371213,173.53122625973194
-927.8509990669597,335.1236150979183,169.5920625289982
-919.9532969974458,342.83674853288335,173.60872469191827
-920.4713128336385,327.2585439472195,161.8799488102461
-928.1507956335753,311.87714459066046,165.74161410879353
-923.451943324173,315.9213390913309,189.34600500680662
-923.9699591603658,319.6535004308301,173.62707958375188
-927.9876410394988,315.78061825393996,169.65528493420283
-928.1507956335753,311.87714459066046,165.74161410879353
-919.6810327685806,323.5957233102028,185.45170878944393
-939.1657701661628,312.1035215899416,181.27393146487336
-916.0182121315638,335.10322077365873,177.61824884134748
-924.052556173617,327.3564367036654,169.6746595422494
-912.9825169655287,315.5593398357238,158.10699882222778
-923.6701625937502,323.5906247291379,181.46767754533914
-924.4889947127716,323.38566177032936,157.9081541606971
-932.0593678779197,342.7888218708734,157.72970382342595
-943.3466066393725,323.63651195872194,169.3983164485324
-927.5236701625939,323.6201964993143,181.40955372119942
-934.4128728974728,323.8853227146885,204.85282945756197
-917.2989756950642,307.7483136443128,146.29460621109146
-919.9532969974458,304.2170363987703,181.58800405847055
-935.558014204647,315.87443214553394,173.46596442210134
-919.9532969974458,342.83674853288335,173.60872469191827
-931.3506651099001,346.82893750669194,177.34904376112132
-931.9227259053806,323.5131262969516,165.6457607847736
-920.0624066322342,327.3615352847303,173.65971050256715
-923.0970820820568,308.2867238047652,201.15023988823913
-904.8665956264374,315.60216791666886,170.00198844661531
-919.9798096189832,300.34823308673197,181.60126036923924
-931.5678646632643,315.87851101038586,177.4499956662061
-939.1657701661628,331.41286779889157,177.28378192349072
-927.6337995135955,346.7646953852743,173.48024044908303
-935.1766403409931,350.72731258890656,177.27868334242584
-908.3122167100897,373.66276965120613,169.7541974068617
-923.3989180810981,362.27763813330756,181.3412327349299
-908.9668745188214,377.36026063946406,150.1093645638419
-935.4764369076088,346.7901882905988,169.43808538083854
-928.0151733772493,350.53050735980185,161.68824216220628
-931.214023137361,346.8625881417202,181.2759708972993
-927.606267175845,331.32415248836253,177.45815339590993
-907.9022907924725,335.1460488546038,189.51425818194798
-924.1076208491178,338.92919600475193,165.71102262240422
-923.5070079996738,346.8034446013675,181.3911988293658
-923.3163210678468,335.2653556515222,189.282782601602
-919.1089719731,346.91051480373017,197.1549917657916
-907.7666685361465,354.49006541479514,189.45103577674334
-912.0290823063941,354.4166458474607,177.61315026028257
-923.5620726751746,339.065837977291,181.41669173469026
-919.7626100656189,350.6080057919881,177.5101589227718
-927.5787348380946,335.1929558004008,177.44489708514124
-926.9516093671132,346.93600770905465,193.1128366975471
-922.8798825286923,339.2371503010712,201.0492879831543
-911.8373756583543,342.8795766138284,185.5037143163058
-916.0182121315638,335.10322077365873,177.61824884134748
-916.3455410359298,346.60663937226275,165.80075764914628
-916.0457444693143,331.23441746162047,177.63150515211618
-920.1174713077352,338.9332748696038,169.69505386650897
-907.466871969531,358.4271897131029,197.29061402211767
-923.451943324173,335.230685300281,185.35585546542399
-920.7445967787166,327.19022296095,154.0271142541031
-916.0182121315638,335.10322077365873,177.61824884134748
-908.529416263454,323.40299694594995,173.84529885332913
-923.451943324173,315.9213390913309,189.34600500680662
-905.2755018278415,334.8085227881081,154.23309692912466
-896.4508777207305,319.5821202959217,189.73757603259014
-897.5419740686169,319.3088363508436,158.32521809180508
-885.8172770517965,303.813228778431,166.40239021480323
-885.844809389547,319.25377167534276,162.42549698418932
-870.2400921823458,326.90572213752915,166.55840679538886
-878.1102619141093,323.0624117308153,162.5284883217001
-874.3118190207667,315.2952333365625,162.6110853349513
-873.7112061713226,323.169481933178,178.29228125812588
-881.1184247423943,327.16676948805156,186.0176512876467
-881.9913018207035,338.53354611411646,158.49347126694641
-893.660934162023,323.1470481764925,158.37110532138908
-905.6578954077081,338.57535447884857,142.44007892603491
-909.729622246129,326.96384596166894,138.49377718181032
-924.5430396720594,334.9574013552029,153.94349752463893
-916.0732768070648,346.67496035853225,173.6535922052893
-928.1242830120378,354.3646403205988,157.74907843147255
-947.06449195189,343.0101002890896,169.277989935401
-939.9305573258963,358.2548576731096,149.70963580835456
-951.7633442612922,338.96590578841915,145.67257932117494
-959.0614531975752,339.12804066628263,157.33711308142946
-943.5658456251628,350.61514380547897,157.53085916189528
-955.3170552635204,362.2419480658533,149.46592363345283
-955.3986325605586,331.3272116370015,153.49380267471565
-958.4333080103809,331.5617463659864,176.99520223521796
-939.3850091519531,339.0821534366986,169.40545446202324
-927.7418894321711,331.2894821371213,173.53122625973194
-912.9825169655287,334.8686860446738,154.11684928084517
-920.2530935640611,319.5892583094125,169.7582762717136
-919.8992520381578,331.2639892317968,177.57338132797645
-905.0307699367268,331.00804046233935,162.0981680798234
-912.3553914945472,327.3013720281646,173.77493843463367
-900.6317141939398,311.805764455752,181.85211055763185
-908.2285999806255,308.0307750353077,185.67604635629905
-919.4352811612529,319.7952409844341,193.31779965635565
-920.034874294484,311.9209923878185,177.63660373318106
-907.602494225857,319.7738269439615,201.34398596870494
-912.4910137508732,307.95837518418625,173.83816083983828
-901.6126811908247,307.6983475498769,154.37891634758049
-892.3516185445592,315.7520661999766,197.66179072364162
-901.177262367883,330.978468692163,162.15629190396314
-912.6011431018749,311.7925081449833,169.89899710910456
-897.2962224612891,315.5083540250749,166.1913089587168
-900.1402109792846,323.51516572937754,193.59414275007268
-899.8679467504195,323.5834867156471,201.4469773062157
-931.5953970010148,312.0097076983476,177.46325197697485
-919.8992520381578,331.2639892317968,177.57338132797645
-919.4077488235026,323.6640442964723,193.30454334558695
-927.2238735959784,327.5573207976221,189.2501516827867
-923.0705694605192,331.4648733257535,197.14785375230076
-931.3231327721496,331.38737489356714,181.32593699173523
-919.708565106331,339.0362662071146,181.47481555883
-915.3095093635442,339.1433364094773,197.2386084952558
-923.1521467575575,339.16780959858875,193.19645342701128
-949.9084804698853,331.70756578444224,200.6699535519265
-942.3105749669868,335.4825552048865,196.84601775325928
-934.6310921670499,331.55460835249556,196.97450199609452
-938.838441261797,319.90944920028755,189.10127311569192
-946.6280534127354,327.6725487296886,185.03464485833595
-931.2680680966488,339.1249815176437,181.30146380262374
-934.8768437743778,335.3550906782643,189.10943084539576
-923.3428336893844,331.396552339484,189.29501919615774
-927.1422962989401,339.1637307337368,189.21242218290652
-923.0705694605192,331.4648733257535,197.14785375230076
-919.5994554715425,335.2011135301046,185.41397928956374
-935.1215756654924,339.15455328782,181.24333997848402
-927.7694217699216,346.7300250340331,169.55433302911803
-927.3605155685175,346.8330163715438,181.33409472143904
-931.7871036490546,342.8571428571429,165.58253837956897
-931.5138197039765,342.92546384341244,173.43537293571202
-931.813616270592,338.9883395451046,165.59477497412473
-912.7918300337018,342.6399433037786,158.0182835116987
-923.915914201078,346.70045326385673,169.61143713704476
-923.452963040386,354.541051225444,181.36570592404135
-923.9974914981162,335.09404332774193,169.65018635313794
-920.0634263484474,346.6708814936803,169.66956096118454
-915.7734802404492,350.61208465684007,181.49419016687656
-924.2707754431942,335.02572234147243,161.79633208078195
-927.9876410394988,335.08996446289,165.6651353928202
-909.5389353143021,334.73612293698665,142.39521141266388
-936.4859559584569,338.8129483564725,141.9781474815559
-912.7102527366635,334.93700703094333,161.96968383698817
-916.3730733736802,342.7378360602245,165.81401395991497
-908.5844809389549,334.9757562470365,169.88064221727097
-923.8618692417903,335.1287136789832,173.57609377310297
-928.3965472409029,315.67762691642923,157.8755232418818
-924.0250238358667,331.22524001570366,169.6624229476937
-908.5569486012045,338.84455955907475,169.86840562271522
-916.3180086981795,331.16609647535097,169.7776508797602
-896.5059423962313,350.46320608974526,181.78378957136232
-908.8292128300695,338.77521885659223,162.0155710665722
-920.171516267023,331.1956682455273,169.72054677183343
-916.1823864418534,331.2007668265922,173.70457801593818
-913.2558009106067,334.8003650584043,146.26401472470215
-906.0943339468627,334.60355982929957,130.6735735444826
-917.0001988446616,330.9947841515707,150.14505463129615
-917.7629465719691,319.21808160788856,130.55018788271227
-916.5912926432575,331.0977754890814,161.92481632361714
-916.4546506707184,350.4417920492727,161.86159391841252
-928.1507956335753,331.1864907996105,161.75146456741092
-928.8054534423072,334.88500150408146,142.10561200817816
-927.3880479062677,342.9642130595056,181.34633131599477
-927.9876410394988,335.08996446289,165.6651353928202
-915.9641671722761,342.84082739773527,177.59275593602302
-920.1439839292725,335.0644715575656,169.7072904610647
-920.8261740757548,334.8931592337853,150.07469421260066
-924.2707754431942,335.02572234147243,161.79633208078195
-924.1076208491178,338.92919600475193,165.71102262240422
-920.1725359832359,350.50501445447736,165.7303972304508
-915.7999928619867,346.74328134480174,181.5074464776453
-916.3180086981795,331.16609647535097,169.7776508797602
-909.1565417344355,330.9692912462462,154.18720969954063
-923.8343369040398,319.6881707820714,177.5529870037169
-916.6728699402958,319.49136555296667,161.96254582349735
-908.9933871403589,334.87276490952576,158.10190024116292
-912.1922369004708,331.2048456914441,177.68860926004294
-916.4271183329681,335.00022943614795,165.83848714902643
-916.2088990633907,327.33196351455393,173.71681461049394
-915.363554322832,331.40572978540075,197.26410140058024
-900.577669234652,338.8527172887786,177.83748782713772
-923.8883818633275,331.2599103669449,173.58935008387166
-923.9709788765787,338.9628466397802,169.63693004236922
-927.8244864454224,338.99241840995654,169.5788062182295
-924.1341334706551,335.06039269271366,165.72325921695992
-931.813616270592,338.9883395451046,165.59477497412473
-924.6796816445983,315.61440451122456,154.00671992984354
-924.8153039009245,315.57973415998333,150.07979279366555
-928.3149699438648,327.284036852544,157.83779374200162
-935.8037658119746,319.67491447130266,165.59987355518962
-935.8853431090128,308.06850453518786,165.63862277128277
-931.676974298053,319.71366368739587,173.51083193547237
-932.1134128372075,315.7418690378468,161.74432655392008
-928.7779211045568,319.4444586071697,146.08352495500503
-932.6314286734003,319.474030377346,146.0254011308653
-921.2350802771591,315.48184140353743,142.28508206166225
-913.0640942625669,323.26227610855904,154.15457878072536
-916.5902729270446,311.78842928013137,165.9149658649998
-920.5528901306767,315.65213401110475,161.9176783101263
-935.558014204647,315.87443214553394,173.46596442210134
-935.3132823135323,331.3832960287153,177.34190574763045
-928.0151733772493,331.22116115085174,165.67839170358891
-935.7762334742243,304.2333518581779,169.5777865020165
-931.1589584618603,315.98150234789665,189.22975735852714
-943.3741389771228,300.45836243773357,173.40070258447076
-931.4587550284756,312.04437804958883,181.38915939693987
-927.8785314047102,311.94546557693,173.59444866493658
-931.676974298053,319.71366368739587,173.51083193547237
-931.6504616765155,323.5814472832211,173.49859534091664
-920.1990486047735,327.32686493348905,169.73278336638916
-916.617805264795,327.2289721770432,161.9380726343859
-919.6259680930798,331.33231021806637,185.42621588411947
-915.7999928619867,327.43393513585175,185.49657630281493
-904.7034410323607,338.81396807268544,169.92652944685494
-924.1341334706551,315.7510464837636,169.71340875834258
-919.5994554715425,335.2011135301046,185.41397928956374
-920.2255612263109,323.4580616214508,169.7450199609449
-923.9699591603658,319.6535004308301,173.62707958375188
-931.3231327721496,331.38737489356714,181.32593699173523
-916.3730733736802,342.7378360602245,165.81401395991497
-931.6229293387652,327.4502505952594,173.4863587463609
-919.571923133792,339.0699168421429,185.40072297879502
-924.0250238358667,350.5345862246537,165.67227340631104
-931.7045066358035,335.15420658430764,169.53393870485846
-920.1439839292725,335.0644715575656,169.7072904610647
-931.9502582431311,338.95468891007636,161.66886755415968
-932.0869002156702,338.9200185588351,157.7419404179817
-916.2364314011412,342.7725064114657,169.73992137988
-920.444800212101,331.1273472592578,161.8666924994774
-924.2432431054439,319.5851794445606,165.77424502760886
-924.379885077983,338.86087501848243,157.8571683500482
-927.8509990669597,335.1236150979183,169.5920625289982
-912.1371722249698,338.94245231552065,177.66413607093148
-931.1589584618603,335.29084855684664,185.24062753335747
-931.7595713113042,327.4165999602311,169.55943161018288
-924.5981043475601,346.5291409400764,149.97884088858072
-927.9876410394988,335.08996446289,165.6651353928202
-928.8054534423072,334.88500150408146,142.10561200817816
-939.5206314082792,339.0474830854574,165.47954704205821
-916.8360245343722,334.8982578148502,154.05872545670542
-928.5056568756916,338.8221258023892,149.94620996976542
-932.549851376362,331.07942059724786,145.98767163098512
-931.813616270592,319.6789933361546,169.58492451550734
-927.9876410394988,335.08996446289,165.6651353928202
-916.3180086981795,331.16609647535097,169.7776508797602
-928.5607215511925,331.08451917831275,149.97170287508987
-913.010049303279,330.99988273263557,154.13010559161387
-920.7445967787166,327.19022296095,154.0271142541031
-931.6504616765155,323.5814472832211,173.49859534091664
-909.1014770589347,319.39755166137263,158.1518663355988
-916.7544472373339,327.1943018258019,158.01114549820787
-928.259905268364,335.0216434766205,157.81230083667717
-920.7170644409662,331.05902627298826,154.0138579433344
-924.842836238675,331.0202770568951,146.1028995630516
-920.3356905773126,327.2932142984608,165.80585623021113
-916.8360245343722,334.8982578148502,154.05872545670542
-920.9077513727931,323.28776901388346,150.11242371248082
-917.3265080328147,323.1888565412246,142.31771298047755
-931.1864907996105,331.42204524480843,185.25286412791323
-931.7595713113042,327.4165999602311,169.55943161018288
-947.1185369111777,315.963147456063,173.2926126658951
-928.2333926468265,338.8904467886587,157.80006424212144
-939.766383015607,323.53861920227604,161.6036057165291
-936.3217816481675,323.4060560945889,149.8819678483478
-935.9944527438015,331.21198370493494,157.7093094991664
-924.5705720098099,331.0885980431646,153.95573411919463
-927.4696252033061,331.3578031233908,181.38406081587496
-931.8411486083423,335.11953623306636,165.60803128489343
-928.4505922001908,307.9400202923527,157.90101614720626
-916.6453376025453,323.3601688650049,161.9503092289416
-920.2255612263109,323.4580616214508,169.7450199609449
-908.8842775055703,331.03863194872866,162.04106397189665
-928.5597018349794,311.77517296936264,153.9618524164725
-920.0083616729465,335.0991419088068,173.6342175972427
-912.9549846277782,319.42712343154903,158.09374251145908
-916.891089209873,327.16065119077365,154.08421836202987
-928.1507956335753,331.1864907996105,161.75146456741092
-924.2983077809447,331.1569190294341,161.80958839155065
-936.1586270540911,327.3095297578684,153.7956386737571
-928.4240795786534,331.118169813341,153.8986300112679
-947.2551788837168,335.2388430299848,165.37655570454746
-936.2402043511293,335.0124660307037,149.84321863225466
-920.7986417380043,338.7619625458235,150.06245761804493
-932.7956029836898,315.5705567140665,142.111730305456
-920.3897355366003,338.8649538833343,161.84221931036595
-924.7612589416366,323.3173407840598,150.0553196045541
-928.4791442541542,342.6909291144275,149.9339733752097
-931.8686809460928,331.25073292102815,165.62026787944916
-916.0722570908516,327.3656141495822,177.6437417466719
-932.4132094038231,311.80474473953905,153.90372859233275
-935.36732727282,323.64568940463874,177.3673986529549
-923.2612563923461,323.6936160666487,193.2474392376602
-932.1134128372075,315.7418690378468,161.74432655392008
-939.6837860023556,315.8356829294408,165.5550060418186
-935.830278433512,315.8061111592644,165.6131298659583
-916.0182121315638,315.7938745647087,181.60839838273012
-920.1164515915223,319.6239286606538,173.6852034078916
-928.3139502276517,307.97469064359393,161.8269235671713
-916.8084921966217,319.4577149179384,158.0366384035323
-916.5086956300063,304.0854930072961,169.86636619028928
-920.5253577929263,300.21159111419297,165.89457154074023
-908.7476355330314,331.072282583757,165.96697139186168
-916.6993825618332,315.6225622409284,161.97580213426605
-931.8411486083423,315.8101900241163,169.5971611100631
-931.9767708646685,315.77653938908804,165.67125369009807
-926.3509965176693,316.19054417155706,216.77331198727398
-916.0447247531014,292.6157250437204,185.61078451866848
-923.9424268226153,284.9036113249683,181.5941223557484
-924.2697557269813,296.4070299235723,169.77663116354722
-924.0790687951544,304.1782871826771,173.67704567818777
-915.9091024967752,311.9597416039117,185.54756211346387
-924.051536457404,308.0470904947154,173.66480908363206
-931.5678646632643,296.5691648014358,181.44014520758876
-942.9377004379681,304.4301570872827,185.16822768223605
-941.8741364278322,320.1450036454855,212.60369239240723
-938.6477543299701,308.37136025044236,196.99285688792813
-950.5896509001547,312.2269072517119,185.0275068448451
-930.7225199227056,300.64293107228264,204.9864122814621
-934.4658981405477,277.52902367271196,212.8576017294387
-934.1120566146443,289.20375459509626,220.67270678570156
-931.0498488270716,292.8370034619366,197.15907063064353
-930.5032809369154,273.6642992255256,216.8548892843122
-938.4020027226424,285.26153171572355,208.8480775800095
-938.838441261797,281.29075678238746,197.0815721984572
-942.1729132782349,277.58816721306465,212.7423737973722
-934.9298690174526,269.6894454273376,201.10333294244214
-912.2187495220081,288.71734996150576,185.68114493736397
-901.1221976923823,300.09738289833945,170.110078365191
-908.5008642094906,288.6531078400881,181.8123416253257
-896.9138288814223,292.4331958415973,181.97345678697621
-916.426098616755,296.38153701824785,173.8187862317917
-900.6317141939398,311.805764455752,181.85211055763185
-901.1762426516701,311.66912248321296,166.14644144534577
-924.1881784299432,308.0134398596871,169.73788194745404
-916.3730733736802,323.42848985127443,169.80314378508464
-916.0997894286021,323.49681083754393,177.65597834122767
-926.5427031657091,327.72863312140237,208.88274793125075
-926.870032070075,339.2320517200064,197.06525673904954
-934.4679375729735,335.45706229956204,200.8881728215038
-938.0756935344895,331.6871714601827,208.69613986427578
-934.222185965646,331.6565799737933,208.75426368841553
-934.1395889523948,323.953643700958,212.70668372991798
-945.4543600515977,320.2428964019314,220.3984031244105
-969.0669086793146,328.02231139074,204.32053759438747
-976.2559079808091,343.65863980054354,215.93306582778013
-998.3399020052719,317.0644409660792,251.0143627028598
-983.4714199038409,316.8084921966217,235.53914945470677
-979.4812703624583,316.8125710614736,239.52318069881156
-983.2532006342635,328.44855276776474,239.42732737479164
-990.7695288401238,336.27997328343525,243.21353367357867
-990.9326834342004,313.0671534112057,243.28899267333904
-960.0230455864133,324.43596946969666,243.71421433415082
-963.8225081959691,312.89380165499944,247.62074714606928
-944.6365476487894,301.1385131517899,247.9480760504352
-937.6657676168725,293.17045066358037,228.4562006393621
-945.0994988094814,293.2979151902026,236.19278754722566
-921.9244084371321,281.54772526805795,240.50414769569633
-911.3183401059487,261.91003043852896,217.18221818867812
-895.876777492824,265.6595269536488,217.4004374582554
-880.7900761218154,277.0436387553344,205.81442184640017
-888.797907542331,292.47602392254237,193.86844641136375
-881.1184247423943,307.85742327910145,190.00678111281633
-895.4413586698823,308.25001402109797,221.1876634732554
-903.6398770222248,315.91012221298814,205.34127352357842
-903.7754992785508,315.8754518617469,201.41434638740043
-915.7449281864858,315.8621955509782,189.46123293887314
-908.8016804923191,323.33467595968045,165.99246429718613
-889.0436591496589,315.5858524572612,182.01322571928233
-900.3584302488619,331.18343165097156,185.7158152886052
-892.4892802333112,354.3371079828484,185.75558422091135
-877.5932657941295,377.25930873437926,166.27798483681994
-884.3743786104329,412.3079746906436,185.68114493736397
-887.4100737764682,431.8528753447916,205.1934146726966
-883.9114274497408,439.457918861181,193.4462838991909
-887.2744515201421,470.50521839772,201.14004272610936
-902.0878689460725,478.49877379125394,216.5897630689379
-909.9315260562986,459.2149204876283,216.53673782586307
-909.412490503893,455.4827591481291,232.25566324891784
-916.8472414127149,436.3008774658013,243.98341941437698
-928.162012511918,432.59013016677466,251.67513880886955
-910.012083637124,408.9898181336134,224.55476640850853
-898.3964962550923,378.0189973130478,232.68190462594262
-898.9145120912851,381.751158652547,216.96399891910082
-886.6177542789843,389.57034257366183,236.7444540184467
-874.3485288044338,374.2113769737883,260.5272952537309
-878.5558778991808,362.56621782158027,252.6550860895413
-878.6925198717198,362.532567186552,248.7281589533633
-859.8889529044068,354.54309065787,237.26348957085247
-875.7384020027228,350.69060280523934,225.2644888927412
-882.982465979718,358.59034430717935,236.90352974767126
-897.577664136071,358.91461406290637,260.23157755196735
-901.8951425818195,351.1046075877084,248.419184940831
-901.4311717049147,358.94418583308266,260.17345372782756
-913.0457393707333,351.29631423574824,260.0255948769458
-917.3356854787314,347.35511107258856,248.2009656712537
-920.8078191839212,343.61887086823737,259.93484013399075
-924.1422912003591,339.91628129891456,275.59564173290573
-935.0756884359083,351.7490682343104,291.09124930531834
-962.1318187148518,340.3506804056431,290.7241514686463
-981.1801175732795,313.5209271259809,302.3030290670107
-989.7600097892757,286.32815487449847,282.64290048079624
-1008.5625570403759,275.0082851942305,298.0987391209027
-1016.6509460417167,259.5238945001606,290.1796230109161
-1040.2634946694336,247.9939632800192,278.09190702227573
-1075.54567563847,240.38790004741685,261.8896361142694
-1097.9590379997248,244.6054463042935,281.16329225576527
-1127.8061315535888,268.2608230129555,304.18440547995493
-1170.2671146619898,256.9827616974196,303.5858320629369
-1136.249381797046,260.41206732166444,284.46105448853586
-1104.4342359521347,264.28291006612864,312.39719985927917
-1039.5292989960894,255.901862511663,297.69901036541535
-983.0339616484732,282.16057471205767,255.28595391902434
-932.6936313623919,258.66427373262025,267.8927054600705
-902.1653673782588,254.48955555668863,260.51505865917517
-856.1965604972138,234.7539679707138,257.3457806692398
-840.5918432900124,261.7162843580632,257.4885409390567
-828.8406336516548,269.3988263066389,261.5633269261165
-832.3402996945952,261.7937827902495,273.31045769962225
-835.3749751444175,262.0283175192344,296.81185726012455
-824.2233586392907,242.52726466224453,289.1955968653924
-832.6390765449976,219.2379660740416,273.44913910458723
-848.2427740359858,192.27564968669222,273.30637883477027
-848.2703063737363,188.40684637465395,273.3186154293261
-844.9888596003733,165.06248311095024,261.6734562771181
-852.723407075811,161.2528233392647,261.57046493960735
-861.0575476844795,149.5689149709636,245.786277678922
-857.6394589385775,145.56856826745118,234.07687640529645
-872.7261603095859,153.49278295850266,241.673762191982
-869.9637490886288,153.18992724324823,210.31850835912368
-857.9127428836556,164.80959349013173,222.2338923077708
-864.638791024458,188.28651986152255,245.60170904437297
-872.6456027287607,184.4085391035675,237.64588315071916
-868.9562694702065,199.78585959527467,229.80018660806698
-860.0215160120939,200.0336506350283,265.2546996170966
-859.5310325136514,211.74305190865385,276.99673180953744
-844.5809731151821,203.78314715014812,265.4729188866739
-821.0510215007164,223.01703435933783,273.61025426623775
-833.1030474219026,230.70671432140438,257.704720776208
-817.4973104984883,219.05033829085366,265.82778012879015
-824.4415779088681,230.88720409110147,285.30639922909455
-832.203657722056,242.5180872163277,281.2265146609699
-808.64617376984,246.31143152860562,293.3407432711477
-808.4819994595505,250.21388547567216,297.25441409655696
-807.9374710018203,250.35052744821118,312.960083208843
-804.6019792691695,254.05311701753405,297.29928160992796
-808.318844865474,254.11735913895163,301.1680849219663
-807.8824063263195,258.0881340722877,312.93561001973154
-804.1655407300149,277.33323815982016,305.07665716631067
-818.761758602581,277.6575079155471,328.4047049706067
-826.1139124981518,289.39240209449713,336.1045820948031
-817.9439461997728,297.17283679951873,347.97407881386613
-806.5741104250689,289.3118445136719,344.24599633921883
-786.8436214201589,297.0025441919514,356.28986453070115
-779.0285163638961,312.41861389975173,356.35512636833175
-783.0176461890657,293.1041691097368,356.36022494939664
-748.6368943523019,308.2092253725788,345.0505524312584
-740.4659083377097,315.9896600776005,356.9200491503215
-751.26266360072,308.5467514390745,380.33171368408176
-742.3564621965708,324.23508537573997,411.8093334624975
-726.6701676923313,324.1851192813041,419.89364359898644
-734.540337424095,320.34180887459024,415.86372512529766
-734.2680731952298,320.41012986085974,423.7165596814407
-758.4791952399648,301.00595004410275,395.94764776962575
-766.5400519035553,289.3903626620712,388.01629506508345
-765.912926432574,301.133414570725,403.6852543937023
-773.6199415702611,281.8832119021277,407.55915628680543
-781.3810016672361,293.5151147435669,403.47927171868076
-797.0397638337253,278.12453794109103,399.3718548128057
-839.918830589447,286.05283149699443,383.00438987829693
-862.003844330123,298.07732508043017,410.10538767061126
-905.4559915975385,301.9991536355432,378.0444902183723
-946.8891007632577,302.566115849959,404.89361810608114
-985.9962372471743,298.8584276995713,388.6220064955923
-1005.1281528350661,318.35030311064435,388.2702044021149
-1051.6945134169162,310.9012761748406,379.7484360102584
-1087.007285872342,299.42640963019994,363.5594214130208
-1118.0780388817793,303.4644858335925,355.23139910163
-1148.2514416237964,319.31495464812144,370.42415095878823
-1167.901373047881,323.22964518974374,358.34255326742567
-1178.6695762569277,319.6555398632561,381.74096149041725
-1191.130508379518,307.9328822788618,358.0468355656621
-1168.686554531874,288.27377340886034,342.7500726547802
-1141.6640748879588,315.1127041344394,339.14027726083833
-1101.0691724493076,310.4719756491769,288.74386258304315
-1077.9522059010978,310.29352531190574,289.0905660954557
-1054.4273528676972,310.21806631214537,301.2170313001892
-1026.793043495995,325.62087970917696,317.2775616545916
-996.7032574834424,317.4743668836963,298.13238975593094
-946.1457276439968,344.23681889330203,306.64905956672266
-895.8869746549536,347.7538201118629,311.31426124109663
-857.7883375056722,343.4842683281243,300.12593495230277
-819.5540781000648,339.249386895627,292.863516083474
-801.1043526586552,338.89554536972366,269.5935921033177
-800.7229787950014,335.1297333951962,281.38559039019447
-816.54591527178,335.1460488546038,269.3743531175274
-843.5480005914355,350.7946138589631,264.99263255036124
-867.0228875304003,339.2993529900629,256.8308239816859
-878.6925198717198,343.223220977602,252.71830849474594
-897.3319125287434,335.80478552818755,272.08679824404874
-935.7568588661777,312.95906349263004,279.4379324234066
-975.9550916979806,289.66772547200117,235.7430926973024
-1018.5598547924113,259.04564759627397,235.20876140170193
-1038.2954423783863,251.35392820178146,223.16489321021962
-1049.9100100442047,243.70605660444704,223.01703435933783
-1050.12415044893,251.37432252604103,215.13870689787032
-1054.794450704369,231.88958512845878,195.5112092304712
-1054.9270138120562,231.8559344934305,191.58428209429317
-1028.098280248607,250.92258824369182,184.07305246949775
-1012.5710614735921,266.27849469492645,184.25354223919484
-970.2650752295638,273.6541020633958,180.9374251145906
-963.4034048324353,269.5211922521963,157.5063859727838
-955.2334385340561,296.61097316616787,165.38675286667723
-927.4696252033061,331.3578031233908,181.38406081587496
-901.4770589344986,346.3506906028053,150.3255444009932
-911.6742210642778,366.091376769845,185.42825531654543
-919.1089719731,385.52920722163026,189.17571239923933
-896.0440109517523,416.23184267818266,181.56862945042397
-887.7914476401219,435.61868731931906,193.40039666960686
-896.562026787945,419.9640040176819,165.8497040273692
-869.1245226453478,446.9049063645588,174.01865060953537
-857.1275613996626,450.78696598736576,185.95952746350693
-818.4568634549006,450.5238792044174,190.4646336924434
-802.7981012884115,446.6040900817303,198.56118042348817
-756.8017620696161,450.04767173295676,191.3895162976144
-749.9941366317755,438.17715529768066,167.983970061132
-710.0141230695498,430.5180668220035,211.77976169232105
-679.2951721535896,395.49591348727654,216.2818087726186
-661.172775616546,368.02577842586413,189.17367296681334
-633.2988329347943,379.62912921334,213.10029418812746
-630.1815604717208,371.69063849530676,193.5502949529146
-618.0754895912469,371.73856515731677,209.4303355376199
-638.1608398382731,371.682480765603,185.58223246470507
-633.3538976102951,391.2008687982135,209.13563755206928
-648.8760178042452,375.8449623469789,208.9551477823722
-656.6646102389706,383.60806187637985,204.88749980880323
-672.215282486884,383.692698322057,200.73011680849223
-680.5494230955526,391.31915587891893,180.95578000642422
-700.2523797627122,368.18689358751465,172.88982476176884
-734.9339478823044,387.7644251604779,168.37961995176744
-735.2072318273825,387.69610417420836,160.52678539562442
-766.4982435388232,380.0941198064579,148.30956544793585
-800.7974180785488,376.59547347973063,159.58150846619387
-835.1516572937752,403.9789326630399,162.8986453070111
-884.3743786104329,412.3079746906436,185.68114493736397
-911.9750373471064,400.7729448894373,169.60837798840583
-969.0138834362398,412.9973028506167,188.3354662397455
-1007.7121137187522,428.7009325304768,179.8534667801951
-1049.3593632891966,436.9371803826995,198.82528692264947
-1065.5422595891566,425.2787649197229,178.99894459371959
-1083.907348584889,417.92967017279096,206.22128861537834
-1133.842851534418,422.21859656457616,209.38342859182293
-1187.765444876691,445.81381001667245,204.57138778278008
-1244.6962010472487,454.2030153008418,227.23865948106646
-1313.2619192078846,451.0745259594256,249.76928920681377
-1336.2157311620178,455.1564499599762,253.33625651981055
-1362.5142122947186,474.84513060015405,268.57489560655273
-1365.3898120153165,498.29248520136855,291.9998164510817
-1356.9159702854697,510.0100442046979,311.710930847945
-1344.4550381628794,521.7327017890922,335.4050567727002
-1318.1667541923084,521.3533673578644,316.17728786078834
-1251.1306103511392,525.0916469946415,360.3401773286495
-1116.1711695635106,535.6569266773058,362.3255647953175
-1012.2386339881612,519.3781770533261,363.9377361280356
-893.0817353530513,514.5192292984863,357.8897992688635
-808.0598369473777,510.0640891639857,367.0274762533587
-782.5577541770126,474.72888295187454,332.2072267288014
-767.4700330897912,408.8766296339729,336.5797698500508
-764.0519443438892,366.25657079634743,332.84964794297747
-764.5414081261185,335.2378233137718,325.0977652919193
-792.3878184701199,288.8845834204341,309.13920655881475
-812.5547460141844,277.2220890926056,285.3278132695671
-825.1247877715633,288.6439303941714,253.7043740726956
-821.953470349202,307.75239250916474,230.13975210698865
-806.4303304390389,323.1082989603994,230.32024187668574
-809.4384932673238,346.52200292658557,249.81925530124968
-809.2212937139594,377.4714097066787,249.71830339616488
-785.4741425461295,389.0360112780614,265.7339662371962
-804.113535203153,400.92794175381,281.11230644511636
-784.5196881707822,427.89433700601126,285.240117675251
-767.7433170348693,466.7363472745535,316.7575063859728
-740.7147190936763,474.2649120749696,317.1368408172006
-733.2259232255664,462.5657079634738,313.36389082918225
-733.8530486965478,450.82265605481996,297.6949315005634
-710.2139874472934,466.2213905869997,309.77143061086105
-705.8424640422571,462.4596574773242,325.54847985805554
-690.5926080771723,458.43789673333913,321.86526489677925
-705.5426674756417,447.08743556668185,337.37820764481245
-732.6793553354103,424.0836575181127,337.0498590242336
-725.9808395323582,396.73792783468366,313.6942788821871
-718.4104663672101,396.6441139430897,309.88359939428864
-730.1341436678173,373.5210290976022,309.78570663784274
-719.337388404807,361.654591527178,290.3641916454651
-723.4631602025157,342.3064961021348,286.44338280656495
-730.6511397877971,338.63347830298835,302.04606058134027
-742.9754299378484,346.2548372787854,278.2887122513805
-757.4350058378755,346.61377738575356,305.54266747564157
-776.811653316882,350.59678891364536,301.31492405663505
-787.2810796755264,350.9598078854655,332.5539302412139
-779.4109099437628,354.8031182921793,336.5828289986897
-756.6171934350671,346.8187403445622,329.10219086028366
-732.9505998480623,346.77693197983007,345.15558320119516
-713.655529666094,331.1875105158235,349.4220758362948
-706.2493308112353,346.50058888611306,337.7065562653914
-736.0138273518481,343.14368311298966,368.66921935625317
-785.9717640580627,343.56482590894956,371.84461564346645
-801.1675750638598,336.01484706806104,379.49146752458796
-815.7637929364258,355.64846303273805,398.8293657875014
-830.8229619696839,348.13213482687775,410.4031448048009
-845.8545986651916,344.4856296492687,421.96468722754463
-865.5310427108136,344.53151687885264,409.8953261307379
-900.3482330867321,325.4556856826745,409.4384932673238
-939.1280406662827,329.55392514263286,400.9942233076535
-985.3966441139431,306.7326762961868,404.3032024187669
-1008.2168732441763,291.5389047228157,415.78622669311136
-1028.516363895928,279.84174004374586,388.04892598389876
-1033.411001718222,248.71694207502057,364.53325039641476
-1059.9440175799077,252.8957391158041,375.8959481576278
-1098.3771216470457,268.6687094981467,375.2667832542204
-1140.3486409732172,288.40837594897346,382.42009248826054
-1124.8591516980825,319.20482529711984,378.62368902734374
-1125.5423615607779,319.03351297333955,358.9910927788797
-1125.2364466968845,342.27998348059737,362.84256091529727
-1090.4539266722072,376.7963575736873,359.32250054809754
-1081.9290991317116,376.9421769921432,382.99725186480606
-1032.7277918555267,403.36302407040125,352.2477094624566
-1029.6176574059439,395.4245333523681,332.6987299434568
-975.9652888601104,410.3807110481154,321.67763711359135
-945.4645572137274,402.3361698439325,314.3122269072517
-926.7700998812031,398.1818459922604,298.9073740777942
-918.9264427709769,398.1573728031489,302.95054886225165
-923.1898762574376,417.3932994447646,287.1225138044083
-923.408095527015,405.7532388736215,283.2343358843234
-937.9217163863298,398.3745723565132,310.513784013909
-942.8928329245972,413.57038336231034,275.0664090183702
-962.0247485124892,413.7539322806464,278.7037367500625
-1001.2675072527317,390.7022275700673,262.4953475447783
-1044.1995992515285,371.5835682929441,250.14352505697667
-1090.933193292307,340.92274120112376,241.69721566488047
-1133.893837345067,317.93425889574934,229.35762977163458
-1173.1325172204577,294.8825541851703,213.14924056635041
-1185.3487174519332,240.74174157332016,205.29946515884632
-1151.2086186414322,201.71822181886785,198.0931306817313
-1076.3206599603332,181.2667934513825,140.41492252706072
-1019.4765796678786,161.2711782310983,117.78640004486752
-961.6209408921499,168.5621491538905,118.62766592057432
-922.895178271887,176.0366689950187,123.10727924418636
-895.8941126684444,199.00679640855952,119.50972044480024
-871.4107263948443,218.47929721158604,155.13248662897118
-832.8491380848711,241.3596895983848,151.70827958579127
-816.4541408126119,245.34881942355446,179.4129493761886
-782.3731855424636,295.1354438059888,152.28237981369787
-767.4506584817445,302.6171016606079,136.78269337643334
-751.955050909332,314.1042047998042,136.97643945689916
-732.2520942421725,337.2354473749956,145.04239470155457
-724.1361729030812,337.27929517215364,156.9373843259421
-720.9913681022572,333.2096077661587,137.37514849617355
-705.7415121371723,329.18784702217374,133.69295325111023
-713.9665431110523,313.66980569307566,121.84792972115862
-710.3577674333234,317.43969653245506,114.03996267838662
-690.8720103195282,271.00385962586614,130.1871689108921
-717.4641697215666,248.13570383362315,145.56448940259926
-710.7116089592267,267.14627319217067,114.20413698867607
-717.027731182412,271.41684469212225,153.34186495898194
-724.6796816445984,259.9042486476014,157.19027394676064
-713.3373782076449,248.17445304971628,153.47544778288204
-720.2265809425238,248.43957926509057,176.91872351924462
-739.8754926503955,252.3542698067128,164.83814554409508
-770.8942401329712,264.12995263418196,156.48361061116694
-793.4697373720894,264.4460646602051,171.8435959272535
-812.3559013526536,280.13745774550944,179.35686498447484
-827.3059607511229,307.40568899675225,186.8895086497428
-834.7141990384077,330.7123227605758,190.62472913788096
-868.658512336017,338.8884073562328,209.71177721240178
-910.6381893918924,339.3187275981095,220.85523598782459
-933.7857474264914,335.6283746233423,220.52178878618085
-952.7534887040938,359.023723697695,224.08263780189975
-971.4479460366181,363.1780475493671,239.48749063135733
-994.6781010844683,347.88128463848517,239.19075321338076
-1013.4276230924935,363.60734807503076,250.63094940678013
-1028.4347865988896,383.13899241841,258.1901056935855
-1089.4648019456185,376.0489055895745,276.92229252599003
-1134.913553558045,411.3606583287871,291.82136611381054
-1149.7300301326143,419.3542137223211,307.2710864566392
-1141.796637995646,411.62578454416143,315.2646418501731
-1140.6545558371106,419.6366751133161,346.6515068856338
-1147.6294147338797,427.6047376015255,366.1433822967069
-1145.9876716309852,428.01568323535565,413.26242906599094
-1114.396863352929,458.86413811036397,429.3300974338842
-1124.7877715631741,451.5232010931358,464.5205039437525
-1116.3139298333276,443.9314138875152,488.22074816578555
-1119.5158387420781,420.95414846048345,511.79760672604823
-1115.090270377754,386.31132955698433,535.5284424344705
-1104.4852217627836,328.0539225933423,520.1857922940046
-1062.554491085131,300.57766923465203,513.0569562490759
-994.7739544084882,249.4409405862349,478.9239954520658
-958.6923159284772,190.5992362325565,420.793033298833
-939.6980620293373,171.07269047024215,417.21892797234534
-941.1154675653765,143.68413270586797,381.9683582059114
-938.1338173586291,116.40162542764351,362.4826010921161
-989.1012731156919,108.84552828947704,338.1960200476208
-989.2103827504806,131.9900271754371,330.2677264917174
-985.6036465051776,155.07028393997953,318.46960990756276
-973.1437340988003,186.10126801711084,338.17460600714827
-962.0471822691745,216.79064716289457,318.61440960980565
-931.0294545028121,243.63365675332557,318.98864545996855
-896.1857515053562,266.57829126154195,319.4332417288269
-838.9297058628586,304.61370600561867,296.6150520310198
-819.4439487490632,316.10590772587994,300.79282935559036
-780.8823604390899,319.67695390372864,301.3577521375801
-735.5682113667767,322.9492232311748,274.55349176324233
-720.7813065623839,311.08686452560255,259.11600801496945
-670.1146670881494,334.0151835744113,271.57184155649486
-647.1843086069148,326.06547597803535,268.01711083805384
-616.2206257998399,325.86153273543977,272.40698913492383
-613.2389755930925,317.88837166616537,248.93006276353296
-577.7130824491544,321.69497228921193,272.997404822238
-566.4248239714888,302.2275700672503,269.3080715636839
-551.4747645730195,332.8873774428577,249.804979274268
-540.2415707708545,324.9927345219826,242.1509893796557
-536.252440945685,324.99681338683445,246.13502062376043
-540.5964320129709,313.3180035995983,234.33588432339283
-525.1273370620958,320.93630342675635,234.54186699841435
-521.4104714657911,320.8720613053388,230.6730636863761
-544.8313134454683,297.80404113535207,226.47489203754597
-563.2524868329145,302.02668597329364,249.73257942314657
-554.8367689272076,286.69831185980945,273.45831655050404
-570.850392335813,298.2516965528494,253.5565152218138
-577.4397985040764,302.45394706653144,284.84038891976365
-604.1685998786538,318.1708330571602,288.3115029087405
-631.6611686967518,322.1120362203199,272.18775014913354
-664.6255347136893,353.7059036470151,314.7588626085361
-718.2187597191702,365.7966787842944,321.76431299169445
-767.6872326431554,377.92620313766685,336.68072175513555
-809.9116415901456,382.15700570531226,339.95808966364666
-852.1900954964234,378.64918193266817,343.2619701936951
-901.3037071782924,383.1440909994749,369.98363355478176
-958.7779720903674,372.0873081021552,380.93334624973875
-1027.7617738983242,388.1661933483912,387.6950844579954
-1085.8346122274172,369.234142138243,382.96462094599076
-1111.9087557932628,361.9452106478767,410.0707173193701
-1151.0454640473558,335.05835326028773,397.8014918448196
-1206.1611253588128,304.28637710125275,369.6073582721929
-1268.2312512427793,304.6595932352027,356.9027139747009
-1321.4706347223569,309.11575308591625,375.7134189555047
-1366.317753769126,352.30277413795744,406.29266875028685
-1399.774642716932,391.4976062161901,433.13159947586587
-1402.3953133842854,430.45382470058587,460.433481362137
-1365.4000091774462,469.3865897120832,519.7248805657385
-1287.9729571260318,461.1564601571383,532.6864933489011
-1172.6430534382284,460.1948677683001,526.5681960710335
-1073.8427495627968,474.5198411282141,484.8291720414209
-1013.4469977005401,489.17622225734584,446.43787633901485
-971.9853364808574,492.4790830711814,419.57549214053734
-960.8887846512316,484.54976979906496,407.994575109747
-969.5227218265159,488.23808334140614,380.3806600623047
-1000.7596885786686,488.3737055977322,368.1389669255047
-1028.9854333538976,465.095623887872,336.39724064792773
-1066.8372991796384,426.94600092794184,363.4309371701856
-1106.7082031070754,411.460590517659,327.5644588111129
-1145.9774744688555,384.54008249504164,311.3683062003845
-1192.109435943977,361.7535039998369,318.6042124476758
-1185.1447742093376,353.78544151162737,299.11233703660275
-1174.4785426215885,303.26564117206186,283.7441939908124
-1163.7613252231904,279.79279366552294,264.360408498315
-1120.8822584674688,252.55617361688243,284.7180229742063
-1063.4620385146816,255.8753498901256,273.79278346836077
-1021.1336185139677,247.81041436168317,274.45355957437044
-951.3605563571659,247.3780546873805,287.274451520142
-896.8669219356256,247.0976327288116,303.7897753055325
-855.1880611625786,262.04055411379017,280.8165887433528
-809.9554893873036,273.0157597140716,250.05990832751246
-785.9625866121459,280.77987895968556,273.9406423192426
-759.4244721693954,276.600062202689,262.5789642742425
-760.7062554491085,268.55552099850615,227.26517210260386
-733.5950604946645,268.3811495260869,231.59590685912116
-741.8476238062948,248.99430488495057,219.7641396399382
-731.6229293387651,233.1224220299491,184.64919212983028
-720.9893286698314,217.35251079624544,161.31400631204338
-684.3366491105527,220.4453100702075,106.908067484819
-672.6129718099453,224.25904870674495,110.99509006643451
-653.2913890064395,231.84777676372667,111.25919656559581
-656.871612630205,251.25501572912265,115.06477747242944
-668.2149357833716,262.9848113270077,118.77960363630804
-683.4372594107061,270.8753753830309,122.44956228681559
-668.1874034456212,286.16296084799603,114.77721750036966
-698.6340901327161,301.94408896004245,122.11713480138478
-698.4699158224266,305.847562623322,126.03080562679408
-702.8149266059257,313.47809904503583,110.24151978504383
-744.8486486210888,306.169792946623,121.41047146579109
-783.1379727021971,321.9764139639938,124.7082336985617
-806.0948438049692,326.05833796454453,128.2752010115585
-809.0754742955036,334.03047931760597,151.75212738294934
-824.8443658129944,322.4750551921401,143.7055467463405
-852.0085860105133,295.60247383153273,143.38943472031735
-886.2537155909511,299.841434128882,154.6358848332509
-924.6521493068481,300.1728418980998,157.98361316045748
-947.063472235677,304.3914078711895,177.25726930195327
-943.3466066393725,304.3271657497719,173.38846598991503
-952.9982205952085,324.2055136055636,224.1968460177533
-957.3707637164579,347.27659292418923,204.4306669453891
-986.1257412062225,351.89590736897924,262.8532679355336
-1024.8249912049478,348.2901908398893,258.3614180173658
-1043.159488714291,364.1192456139457,281.5803561868732
-1039.4477216990513,344.745657283578,281.7017024162176
-1035.1853079288035,344.81907685091244,293.53958793267833
-1049.9202072063347,325.7993300464481,316.93085814217903
-1022.5102354014879,348.87244879749966,325.112041318901
-1029.34233402844,356.8741619207375,348.5308438661521
-1019.8895647341345,372.7001575461549,395.7141327568538
-1041.8338576374197,346.1396093467189,434.7213370518985
-1032.4626656401524,331.04984882707146,485.93250498386305
-1031.371569292266,312.0137865631995,521.3350124660308
-1054.794450704369,269.63642018426276,521.1269903585833
-1068.9990975511516,222.7192772251483,454.35393330036254
-1089.1690842438552,172.4380904794196,438.52283909388024
-1125.5627558850374,122.07022785558782,398.9017656386228
-1127.612385473123,102.24796439150985,343.99310671840027
-1131.5994758658667,102.24388552665793,340.00907547429557
-1124.2983077809447,82.77220049660181,332.33469125542365
-1104.7605451402876,82.69184685901915,340.4771252160524
-1089.179281405985,105.7853599343303,340.63212208042506
-1037.612232515691,140.52505187806236,376.60872979049935
-979.4863689435232,167.1936899960741,381.31472011339247
-917.5049583700858,213.14210255285954,382.08766500282974
-863.9392657023552,255.11056273039216,363.12604202250515
-839.9198503056601,305.3621777059445,379.01424033691427
-801.1675750638598,336.01484706806104,379.49146752458796
-716.8553991424188,366.138283715642,361.0295054886226
-648.0938954688911,377.0380303161631,342.39929027751583
-594.3640284908711,403.59959823181214,331.3414876639832
-556.5662076244182,414.70328807492876,308.3224138722194
-518.4400381373864,414.30355931944143,297.12083127265686
-484.686411771604,417.6645439574167,270.1421994258998
-461.86516292515796,413.5489693218378,262.64932469293797
-454.32232209776026,428.8956983271556,254.86073225821258
-453.58608699199016,436.80461727501245,274.46885531756516
-483.5688028021802,441.1159774234831,297.5521712307465
-480.83290420276046,436.9443183961904,266.2101737086569
-507.5076606180501,441.08946480194567,273.64594433369194
-527.5104138518251,414.0210979284465,257.73939112744927
-553.5570250799203,391.29060382495555,288.82340044765544
-596.5992464297187,376.0060775086294,272.5313945129071
-619.4755599516656,391.69339172908184,276.0606323260237
-662.2720296941362,372.608383086987,267.6347172581871
-684.601775325927,369.1240127872414,290.8597737249724
-727.6715290134756,369.28002936782696,270.5908745596101
-755.0274558590345,353.9455369570649,262.3831787613508
-808.3494363518633,385.41397928956377,273.25233387548246
-865.3607501032465,401.5061208465684,291.9671855322664
-918.4369789887476,429.1751005695116,310.7024315133099
-960.0342624647562,445.14793532959783,329.64773903422684
-1001.577500981477,449.5500502210235,352.5587229074149
-1062.9011945975437,457.8311655866173,359.4611819530625
-1115.6307199706323,477.8655300229946,390.00066281553853
-1173.7545441103741,431.88652597981985,389.28584175024093
-1190.2637495984868,393.1138564137601,365.6212875956621
-1145.4370248759772,346.05803204968066,335.05427439543575
-1170.7361841199595,287.76085615373245,283.85228390938806
-1235.8858529671193,280.6320201088038,294.6745320777228
-1312.0280625901812,296.90771058414447,317.02671146619895
-1360.7093145977476,343.99310671840027,347.53560084228565
-1377.6875895438302,360.1637664238043,410.02075122493414
-1337.8676714270418,425.8396088368607,433.9432935813964
-1287.8913798289936,429.28726935293906,430.7556606996273
-1222.7621053060934,471.1659945037297,411.966369759296
-1131.4465184339201,477.8818454824023,377.9904452590844
-1070.834586734512,484.86996068994006,347.47747701814586
-1041.0078875049076,495.9644730871399,316.4903407381726
-1021.3069702701738,499.78636945338116,328.54644552421064
-1048.0643236987148,530.9448180571347,328.0396465663606
-1063.2886867584753,538.835382113158,331.70960521686817
-1070.2635456552441,566.1127908103175,347.21235080277165
-1104.7809394645471,570.2834301213973,350.6059663595622
-1131.0386319487288,535.9128754467632,377.80077804347053
-1166.239235620727,501.29351001616254,369.5410767183493
-1232.9796617601323,501.49133496148033,333.21878521207555
-1259.3189315413522,455.5143703507314,360.45132639586404
-1288.2584776656659,389.5785003033656,317.0695395471441
-1246.8783937430214,265.4178542111731,314.1837426644165
-1205.0292403624073,226.33519091636802,307.093655835581
-1144.1929710961442,167.7249621430356,296.42844396404485
-1067.918198365395,132.1745958099861,281.99232153691634
-1014.9215073445062,92.899817980656,263.295824771966
-922.2201261388956,103.82648508919968,268.5718364579138
-903.9896396832762,111.14090948489037,237.42358501628996
-862.6646204361326,95.09944782367069,210.62442322301703
-831.7560023045587,125.77689628976256,207.0594953424462
-778.8439477293471,152.1335012466031,172.44114962805853
-763.9764853441288,171.1868986860957,152.97680655473582
-725.8238032355596,193.96531945159666,137.77283781923492
-696.2510133429868,208.86031417456525,98.919304757486
-653.781872504882,220.13837549010114,99.51736831639757
-657.4171608041482,231.80902754763355,103.34823818531305
-619.4551656274059,246.81517133781674,84.24303916220117
-619.4826979651564,262.2557142347285,80.26594198834465
-584.7470848862762,269.7251354947918,80.76101420974544
-585.3476977357203,281.1602331071263,61.0903825465373
-581.385080532088,296.60587458510304,61.09762253164945
-592.5366970372147,316.1069274420929,68.71398489800289
-600.2987768504026,327.73883028353214,64.63389638663561
-588.7657864816222,304.47094573580176,68.80983822202282
-611.9673894755091,293.0440058531711,68.50076223786921
-616.2298032457568,273.66124007688666,60.65312823441237
-607.9221752586257,262.16699892419945,80.4393957161722
-634.7876186057421,258.5408880708499,83.97383408197499
-665.8338984260681,266.4477675862808,75.63286137467944
-675.5038672737378,277.60040380762035,16.581095481127605
-697.8621649594918,289.55555668857363,35.82895280243509
-740.6321220804251,293.64971728368,23.400651598660094
-785.2916133440065,305.9893031769259,65.86092090571195
-818.3640692795196,322.107957355468,108.48148960144393
-858.4623699224506,338.4570673981431,170.61993647167995
-864.6969148485978,354.33404883420945,209.71891522589263
-863.0062253674804,381.7909275848532,252.8233392646827
-909.1932515181027,370.57608867452194,256.0935691597029
-935.8945205549296,370.85243176823894,263.54157637929364
-993.3687854670046,359.79564887091925,274.49230879046365
-1055.028985433354,340.96251013342993,277.5565560104623
-1099.794527183085,357.1362289874728,316.07735567191656
-1176.7831012629188,369.3371334757538,314.8832679865194
-1210.5051164260988,369.8449521498167,341.84864352250776
-1221.4160799049625,385.54552268103794,357.33099478415164
-1211.5248326390767,405.3433129560044,416.2818087726186
-1171.1644649294103,393.9184125057997,471.8695986906844
-1120.4437804958882,385.96462604457184,492.27921869343766
-1095.9807885465475,382.259997042823,531.904371013547
-1106.9427378360604,370.9136147410176,551.401345005685
-1142.9591144784408,355.39863256055844,515.592990470752
-1198.299113356753,312.9855761141675,483.50965926182744
-1241.8307984887808,285.9926682404287,455.4766408508513
-1269.730234075857,270.5205141409146,431.56327594030586
-1296.8954739895887,282.26662519820735,423.26686483151747
-1296.518178990787,297.8101594326299,431.0697332932246
-1265.5493976026473,297.60621619003433,435.4585918738815
-1206.4466458984466,270.45525230328406,479.60720531476096
-1099.9066959665126,249.9701733007704,445.9504519892115
-1004.4439232561579,221.97488438967437,427.8515089250662
-889.5484186750829,178.42280493338706,417.9449659159856
-782.6882778522738,204.36336567533257,384.1372945909154
-689.9328516873754,203.71788531251755,393.37796291292136
-652.2981854149991,230.22744770130478,362.4550687543657
-609.4476707132405,257.05006296747615,370.85549091687784
-606.058134021302,307.1079318625627,347.1899170460861
-582.6117991363004,353.3541015535377,347.3846828427649
-579.4129493761886,376.3313669805693,323.8078242825022
-603.1080950171568,430.4324106601133,295.7982593444245
-576.1345617514646,468.84308097056595,288.2227875982114
-588.86775810292,476.3624683250652,252.68567757593067
-581.2698526000215,499.44680395445954,244.87261195209376
-604.9904911463141,491.7510056951151,228.8447125165067
-586.2960338137897,487.59668184344304,213.4398596870491
-597.5292276159545,476.18197855536806,225.0839991230441
-597.7739595070693,460.6731146721868,221.20805779751495
-609.5792141047147,425.9436198905845,221.14891425716226
-637.1798728413883,395.1002635966411,209.0652771333738
-651.284587499299,387.8235687008306,248.12448695528036
-701.3526535565153,392.0788444575875,247.36071951175992
-730.8713984898003,404.23080256764547,282.19830421193785
-749.3201042149971,404.58464409354883,305.4692479083071
-773.1223200583279,404.5928018232526,285.48892843121763
-802.8868165989406,420.5452422590793,312.4614419806968
-859.925662688074,432.7685805040458,331.18954994824946
-928.8258477665667,479.76322189534653,333.92340911524326
-982.9105759867031,480.1456154752133,329.18784702217374
-1008.8215649584722,496.0674644246507,356.21746467957973
-1028.006505789439,507.8227529278602,355.8911554914268
-1058.8631183941511,504.19256320965883,355.44044092529055
-1085.8346122274172,485.09123910815623,359.02576313012094
-1125.297629669663,469.70882003538424,334.93904646336927
-1145.4064333895878,427.16422019751906,319.0824593515625
-1169.2066098004925,388.5536855093228,307.08243895723825
-1231.001412306955,369.6858764205922,306.2207787572719
-1303.7581641029303,358.78205095521923,320.86594300806087
-1376.4537329261268,355.6148123977098,335.48663406973844
-1391.0968577444899,348.2024952455732,358.8401747793589
-1374.7304125261942,367.6321679676546,382.56693162292936
-1342.956055329802,386.94253389281766,406.5261837630588
-1257.799554384015,421.14075652745845,411.6104888009668
-1162.3337225250214,393.14444790014943,393.5115457368215
-1062.4933081123525,380.69677208832786,387.2005220947011
-994.4415269230575,406.86574926198045,344.9608174045164
-960.0607750862936,421.9697858086095,333.6501251701652
-955.9084906670474,445.1866845456909,337.5586974145096
-986.8456608525848,468.5687773092749,329.1674526979142
-1015.8188576119267,480.8573773918719,379.71172622659117
-1035.1955050909332,484.8414086359767,375.4839828075847
-1055.0595769197434,477.1160386064559,359.51420719613736
-1082.693886291445,423.09351307531125,351.4329562082873
-1106.4328797295714,392.21956529497845,339.4074429086386
-1142.3166932642646,357.4288875405975,311.5151453350533
-1181.8103021928998,318.8683189468371,291.43081480424
-1179.0672655799892,276.0779675016443,268.0680966487027
-1172.3677300607242,229.42289160926518,248.70266604803888
-1157.3371130814296,175.14135816002408,249.11157224944301
-1131.4771099203094,151.48088287029722,222.1064277811485
-1081.1643119719783,124.11577857882153,234.7254159167504
-1050.1445447731899,131.64944196030245,239.0898013082959
-993.6563454390645,138.59880795174703,200.6658746870746
-932.0828213508182,145.82553675312164,197.63935696695611
-906.0902550820107,160.8184242325361,166.58084055207436
-855.9140991062187,191.3477079328823,163.30551207598927
-813.3358486333254,218.10098249657125,163.85309968235842
-797.7586637638746,241.19449557188238,164.00809654673108
-759.7976883033452,275.50998557101565,140.91356375520695
-755.8626034374635,287.08682373695405,140.93293836325353
-763.8429025202287,306.3869924999873,128.97472633366135
-748.3472949478161,298.5647494302336,133.15760223929684
-718.8010176767807,309.59094084116396,94.31701957345273
-718.9917046086075,301.81968358205916,90.41578928584177
-676.2768121631751,289.9889360790892,102.8689715652134
-676.6306536890785,278.31420515670493,95.05427439543575
-650.0925392463279,274.1343883997084,83.69198452070789
-642.6577883375057,235.38721173897306,83.93406514966885
-624.5629241382123,242.66798549963548,48.85898854348835
-631.6428138049182,215.8525082469549,72.3910815620013
-620.4911972997915,215.65978188270208,60.78497754075042
-632.5687161263021,200.17233203999328,48.88244201638685
-666.7598007474521,192.83955275246902,64.09344679375731
-700.6500690857736,208.75324397220254,83.15520590619631
-747.9281915842822,216.5734476095303,51.0237440920192
-773.9207578530896,220.88990633906585,78.0921109655183
-812.291659231236,225.09113713653494,81.4278066414117
-843.064655106484,233.06633763823532,80.93997440512305
-881.5997307949199,233.36409477242486,80.36179531236458
-896.9586963947935,241.2199884772068,80.10523471317934
-908.7649707086518,245.1102058297176,72.06599603330393
-916.063079644935,264.58168691653117,79.74017630893323
-907.6198294014777,272.4304426078223,99.46332335710973
-902.2673389995565,292.08649232918486,138.72321332973036
-912.4910137508732,288.64902897523626,177.82831038122092
-957.9703568496889,339.40234432757364,188.74947102221455
-1037.479669408004,367.4159881305033,222.78555877899183
-1105.9638102716017,414.51260114310196,237.29917963830667
-1149.4037209444614,446.46948754161724,311.1082785660751
-1193.8735449924288,466.58033069396794,357.4696761891166
-1204.3154390133227,451.5028067688763,392.6865953205224
-1216.9395257299896,479.35329597772943,466.97088200353846
-1222.5785563877573,483.7941600852483,525.7412062223084
-1197.9524098443403,483.99198503056607,569.280029367827
-1136.1881988242674,441.06193246419525,582.123355070284
-1067.5918891772421,370.8218402818496,575.5390474830856
-1050.1445447731899,265.9430080608567,544.7568741619208
-1048.5333931566847,199.70020343338453,493.9841842015368
-1064.869246888591,145.52064160544123,478.22447012996287
-1089.9542657278482,118.17389220579913,426.92050802261735
-1106.4838655402202,94.84084779205948,399.27906063742466
-1121.3513279254385,75.7872464093243,418.74442342696034
-1114.2744974073717,83.29419322602521,399.2015622052383
-1095.6646765205244,86.84311156205229,379.8453090504913
-1042.608841959283,93.92453080307752,353.1440400136642
-954.2840827397737,108.61201327670511,342.64300245241753
-888.9936930552228,154.39421209077514,327.7684020537085
-805.036378375898,192.15328374113486,297.5022051363106
-743.0274354647103,222.66115340100853,302.2520432563618
-685.6908322413873,272.3029780812001,279.3961240586745
-635.1057700641912,322.2435796117941,283.90938801731477
-592.9914904682028,379.7759683480088,264.7234274701351
-559.2388838186333,421.7566651200971,229.76551625682575
-548.0332223542189,448.6119113050838,214.14448359021685
-544.3979340549527,475.55995166545154,202.33413041150652
-528.7401916046765,510.2598746768775,202.45139777599897
-544.5355957437046,514.1449934483234,190.4279239087762
-551.6430177481608,522.0783855852917,205.99389189988426
-555.5781026140426,529.8119133445164,201.98334803424208
-555.9870088154468,529.7089220070055,190.20460605813403
-578.2627094879496,514.6517924061734,217.39329944476455
-578.9703925397563,491.30335027761777,201.76308933223888
-601.9823283180292,468.3373017289289,209.34569909194272
-632.8644338280657,480.14765490763926,204.91809129519257
-682.195245063299,473.00250340330285,227.75157673619435
-727.3462395415357,454.3233418139733,262.45965747732413
-769.4880514752746,431.5408421836203,273.6785752525073
-791.4629358649488,401.11251038835894,312.6990358583207
-795.1798014612534,401.1757327935636,316.5678391703589
-810.53978677734,409.03264621455855,316.3108706846885
-818.1917372395264,416.8293963789878,316.1701498472975
-883.4280819647893,417.40349660689435,323.03997797412984
-925.0804301162987,444.94909066806713,338.02164857520154
-974.8211672691491,437.70094782622,349.0743526076693
-1009.4201383754902,449.57452341013504,348.5165678391704
-1043.5877695237416,446.11054743464905,363.71543799360643
-1108.3601433720999,454.5252456241429,382.33953490743534
-1166.3514044041544,447.19960435010944,377.5713418955505
-1242.9524863230563,436.32535065491277,392.15838232219977
-1307.561705577338,410.02381037357304,422.6764491442032
-1362.4122406734207,360.01080899185763,406.32529966910215
-1406.1376718859144,325.2456241428011,374.39084702727234
-1394.4619212473172,282.7030637373619,386.4826418807646
-1352.9492742169855,255.12381904116089,367.5750638597279
-1330.4543345586924,243.2023167952359,352.2528080435215
-1306.4604120673218,270.27578224979993,372.144412210082
-1275.2774902744568,320.3305919962475,372.4421693442716
-1241.7186297053531,315.92031937511797,341.5631229828739
-1181.6471475988233,327.62768121631757,405.2178878618081
-1082.8774352097812,376.7025436820933,355.51080134398603
-1048.1968868064018,376.4353780342931,356.03187632881776
-1029.4545028118675,399.3280070156476,336.61240076886605
-1029.8317978106693,422.4031651991251,320.83025294060667
-1067.5816920151124,457.65577439798506,335.84455446049367
-1089.9338714035885,488.9212932041013,351.1025681552824
-1127.8469202021079,520.2714484558948,362.2021791335472
-1178.9143081480424,497.2401380695753,337.96760361591373
-1190.4269041925634,485.7581335114438,341.7589084957657
-1198.7885771389824,431.5867294132044,333.96725691240135
-1184.2984097525662,396.4779002003743,314.6793247439238
-1170.7361841199595,326.3805682878455,275.87300454283576
-1149.0060316213999,264.06265136412543,248.9361810608108
-1092.6157250437204,216.91811168951685,218.54251961679068
-1043.2104745249399,158.43126857795477,211.6308831252263
-967.1182309963139,134.41899119475053,189.30419664207454
-929.4550126699739,87.55997205977577,174.3276246220677
-899.3907195627457,94.8542060744495,151.20555949279318
-852.9324488994713,125.44650823675772,151.79801461253334
-825.5765220539125,121.47267415478275,163.99585995217532
-764.4669688425712,140.16917091973306,145.22492390367762
-757.223924581789,170.88812183569314,125.60660368219527
-730.3044362753847,201.56118552206922,118.05662484130667
-691.4705837365462,224.50989889513752,122.48627207048278
-665.0691112663346,239.60577771206277,103.20751734792208
-669.0052158484294,266.64865168023744,95.20784365711023
-657.4997578173995,278.1306562383689,91.41674272050089
-658.2094803016322,312.71025273666345,63.81720567166158
-642.7689374047204,316.45974925178325,64.03583282772405
-650.8297940683109,304.84518158596467,56.10498998128821
-673.6235105770065,312.82955953358186,63.585832062936895
-685.1024559864991,324.5246847802257,63.37444489198657
-712.6766021016352,316.8584582910577,47.28882951874494
-728.4709865244504,301.43423085355346,39.25499533479833
-725.8452172760321,301.0967047870578,3.9739156592720253
-732.9791519020257,285.85194740303774,23.541576379293648
-732.8700422672372,262.7084682332907,31.47058373654612
-728.6616734562772,255.0442811765486,43.33324835698226
-739.5134933947884,278.4824583318463,58.790208684922995
-758.7534989012559,282.5001402109793,58.48837268588152
-770.6403307959396,255.4735817022123,54.476911075647656
-793.489111980136,275.029699234703,57.99330046448074
-808.8480775800095,282.88661265569795,57.7367398652955
-847.1374016611178,298.69323367306885,61.03450209806611
-900.7867110583126,303.0474219024846,68.06544538654893
-910.9288085125911,330.52469497738787,103.14225551029149
-978.4646132981192,358.55261480729916,149.13145671559607
-985.1906614389217,382.02954117869,172.49927345219828
-1030.178501323082,405.8725456705399,203.14174565218502
-1090.1684061325734,410.627482371656,249.32265350552944
-1162.6804260374338,434.5418669984144,263.8546292566779
-1188.4486547393863,431.190059806356,298.80132359164446
-1212.3304084473293,400.28144167478195,282.8499028720308
-1254.8321802042492,385.13355733099485,282.26356604956845
-1200.5526861874343,334.59540209959573,302.87101099763936
-1146.0080659552448,303.4338943472032,327.3401212442577
-1124.6959971040062,284.4885868262863,390.5176589355183
-1111.439686335293,292.5474040574509,437.7845645556842
-1078.594627115274,308.2632703318667,493.16841123115444
-996.119979809619,296.44271999102654,541.5386497937624
-930.5838385177406,280.4953781362647,546.4985494536871
-888.0861456256724,257.0245700621517,555.0641656427017
-888.7948483936922,252.98445442633317,535.4438059887934
-904.1538139935658,260.8413678473281,535.1868375031229
-904.8360041400479,279.9794017324979,511.56511142948926
-916.4515915220795,310.95022255306355,503.43695349584215
-905.6548362590692,318.3931311915894,480.02630867829487
-890.9770410894649,310.36592516302716,460.6496611992883
-896.1398642757722,298.48113270076936,425.2910015142786
-885.1789347024725,271.20882258467475,413.77330688869296
-855.632657431437,262.925667786655,378.9224658777463
-817.6981945924449,254.75366205584987,363.8194490473302
-761.0682547047159,242.4273324733727,333.31259910366947
-718.4889845156093,249.8712608281116,337.8493165352083
-669.4304375092413,256.94911106239135,307.1640162542765
-635.4861242116319,248.77200675052137,288.0769681797556
-608.1301973660732,283.4168650864465,292.2945144366323
-585.2834556143026,302.47943997185587,280.79823385151917
-566.3167340529131,337.0121295243534,265.2669362116523
-542.8143147761979,371.6865596304549,269.4273783606023
-551.3666746544437,367.67193689996077,245.76486363844947
-528.2741812953456,421.5527218775015,234.15539455369571
-516.0600204962959,437.0748420714516,249.9844493277521
-531.5556280687085,444.8981048574183,245.8005537059037
-557.8755232418819,460.7179821855578,261.05142938720155
-595.3195025824314,480.59836947377545,287.89647841005853
-633.63635900129,473.22684097015804,295.1966267787675
-655.9661046330807,450.43210474524943,322.4108130707225
-679.0851106137163,392.68251645567045,334.03353846624486
-694.0086573906483,404.5102048100014,345.54409507833975
-724.9448078599727,408.5829513646353,341.14198018691405
-743.5311752739213,408.9031422555103,360.48599674710533
-782.8014663519143,401.29198044184307,340.29969459499426
-824.398749827923,417.26481520192937,359.2460218321242
-853.5911855730551,437.22270092233333,401.9129876155466
-865.5871271025275,433.3406412995264,389.9721107615751
-869.6048089816605,429.4677591226362,386.00031611202604
-853.8634498019203,437.15437993606383,394.05913334319064
-871.4861853946048,413.54794960562475,335.0053280172129
-900.9223333146386,417.9969714428475,373.79635247510623
-924.5889269016433,418.03877980757966,357.7429601341947
-1011.7195984357555,438.40863087802666,395.61522028419495
-1074.2710303722477,446.3828116635141,367.1794139690924
-1150.8211264805007,443.24616459239394,381.74096149041725
-1204.5805652286972,451.43448578260677,384.8327410481663
-1283.068122141608,443.94976877934874,344.4366832710457
-1355.4679732630411,464.03002044531013,362.9078227529279
-1430.7332269429419,488.2482805035359,408.7940326207217
-1472.7761264040219,500.2503403302861,415.9728347600863
-1433.7209954469674,496.22042185659734,432.26993927589956
-1337.7656998057441,499.24286071186395,421.9228788628125
-1293.1327211637004,463.7251252976297,383.46530160656295
-1248.4997425216563,428.2073898833955,345.00772435031337
-1202.7246817210773,420.00989124726595,333.94686258814176
-1172.4391101956328,400.326309188153,322.69327446171735
-1147.1297537895205,415.14788434378715,272.00216179837156
-1162.5988487403956,407.5295845166291,271.79617912335
-1193.9449251273372,430.80868594270214,251.6251727144336
-1189.376596493196,454.12857601729445,267.31350665109903
-1189.5703425736617,465.66564525092673,259.42192287886286
-1198.91094308454,446.0055166647123,216.17779771889485
-1183.7681573218176,426.50854267257426,212.5455685682675
-1211.6981843952829,387.8592587682848,192.63458979366044
-1185.409900424712,368.170578128107,177.39595070691828
-1158.70353280682,348.58386910922695,173.93809302871014
-1105.6273039213188,320.91488938628385,155.20284704766664
-1079.0636965732438,281.98518352342546,151.80821177466314
-1003.1386865035462,273.3797984021047,121.5766852085065
-930.3309488969222,253.40253807365414,114.88530741894533
-868.4851605798108,260.6975878612982,119.71264397118284
-811.1740502618122,248.54257060260133,108.83737055977322
-768.8405316800336,259.78698128310896,105.50901684061328
-726.2347488693897,290.4100788750491,106.04436785242669
-690.8720103195282,290.3132058348162,126.19701936950949
-664.4164928900287,313.145671559605,106.8937914578373
-653.3739860196907,316.7880978723622,91.34821779098877
-656.5738554960155,332.4295248632306,106.94579698469917
-637.6336465561635,343.7850846109528,95.41749731049849
-622.411322928829,355.20386676387966,87.7577970050935
-615.5771848694509,347.20113392442886,64.33940234432758
-616.2032906242193,335.45808201577506,48.67115681705781
-642.7148924454325,343.50670208480983,60.020802210744755
-658.3736546119216,328.11612528233394,55.91348727649096
-657.800574100228,332.1225902831243,71.60702176584257
-654.7108339749049,320.31529625305285,52.07007489815585
-665.6707438319916,308.9689139512474,71.56725283353643
-676.6867380807922,328.50463715947853,83.110236421204
-688.573569975476,320.78844457587456,75.10893118445138
-734.2425802899054,325.15079053499414,90.10865076249281
-760.7266497733682,337.0682139160672,101.44554970351751
-779.3395298088543,352.8279279876411,116.8125710614736
-810.8212284521219,356.7640325697359,96.70417522803405
-841.2679151392168,353.23581447283226,108.03383418394662
-852.5011089413816,361.13147710992035,115.68782407855895
-867.777477528004,341.975088332917,123.3734251757736
-859.9888850932787,353.52133501246607,123.45092360795991
-874.7482575599212,349.94315082112655,142.8653005868467
-924.4624820912342,365.8731575002677,149.91561848337608
-957.8072022556124,381.9234906925403,184.68386248107154
-968.3582059112949,370.6800997282457,215.96059816553054
-971.7477426032337,359.24092325105926,231.64689266977
-979.1824935120557,359.3683877776815,239.38449929384657
-1025.0697230960625,352.0906731656581,250.49532715045405
-1085.7734292546386,391.4252063650686,269.0765959833379
-1155.2670891690843,391.92690674185377,264.10955830992236
-1166.0148980538718,372.9122585184544,291.4848597635279
-1162.1603707688153,392.19101324101507,287.55283404628494
-1084.5191783126756,376.29261776447623,308.3927742909149
-1017.7797718894832,376.09479281915844,344.7150657971887
-956.4795317463152,363.9438544253135,337.8248433460968
-886.9807732508043,363.4421540485284,342.7918810195123
-839.8117603870844,378.7654295809477,366.99484533454347
-815.8729025712146,378.7919422024851,390.901072231598
-839.5660087797568,374.96494725517897,374.8599164852422
-884.9902872030714,375.52783060474275,397.72603284505925
-946.4006566972413,391.51290195938475,400.6760718492044
-1003.7382796367773,399.79911590604337,411.56358185516973
-1037.7142041369889,404.1063971896622,430.6628665242463
-1049.1860115329905,396.49217622735597,434.44193480954254
-1043.1187000657717,357.40339463527306,395.41841505509024
-1008.7909734720829,326.15215185613846,392.11351480882877
-956.3683826791005,282.8713169125033,357.72256580993513
-899.7659751291216,266.67720373420076,327.2279524608302
-842.9178159718151,246.6815885139166,304.599429978637
-807.6906996782797,227.24069891349242,324.8163236171374
-765.030871908348,226.981690995396,333.3054610901786
-707.2017457541567,249.71422453131294,330.1698337352715
-672.9290838359685,230.03370162083897,322.9002768529519
-626.6074551452332,279.9019033003116,315.5766750113444
-602.8327716396527,314.6446543926825,327.5899517164373
-569.0240805983696,325.7432456547343,300.58684668056884
-561.6719267027987,352.6280636098974,284.9076901898202
-557.2738906762249,372.0444800212101,296.68133358486335
-560.9917759887425,391.4180683515778,296.55998735551896
-565.5550060418186,426.0272366200487,268.9032442271316
-561.3466372308587,418.36202984709365,280.76560293270387
-580.4500007647872,422.4143820774679,284.3906940698404
-600.0723998511214,430.1978759311284,272.2968597839222
-614.2036271305697,399.74303151432963,315.3584557417671
-637.0789209363035,396.120999525832,322.87682338005334
-679.9029230165246,392.47755349686184,310.47401508160283
-698.7615546593383,392.7284036852544,321.9651970856511
-740.3578184191341,370.0835657436536,348.8908036893333
-783.0186659052787,370.34257366174995,340.401666216292
-806.6036821952451,381.98977224638384,324.31054437550034
-855.9620257682287,370.9758174300093,347.1552466948449
-921.4441221008194,394.6597461926346,342.1708738458087
-927.8418216210429,406.63325396542143,377.3561817746122
-966.785803510883,406.82801976210027,364.9982409895327
-992.3969959160366,426.6880127260584,399.8684566085259
-1011.3096725181383,419.2022760065874,411.38513151789857
-1050.358685177915,423.2311747640632,395.08802700208537
-1104.6687706811197,431.282853981737,382.4731177313354
-1157.9081541606972,435.73901383245044,401.2838227121392
-1222.5989507120169,417.14142954015904,427.8494694926403
-1234.1319410807973,421.0989481627264,427.6638811418783
-1220.4065608541143,374.21341640621415,388.7810822248169
-1275.2265044638077,366.6868910382241,364.4373970723948
-1340.2742016896698,394.34261445039846,371.21952960491103
-1362.6569725645354,402.42998373552643,390.4799294356381
-1341.701804387839,410.4286377101254,437.86206298787056
-1299.281609927957,433.2794583267477,434.4959797688304
-1256.3515573615864,452.3981176038709,446.848821972845
-1184.1964381312682,436.1183482636783,420.51159162405105
-1116.0590007800831,454.58438916449563,382.2243069753688
-1054.896422325667,442.39980013562234,371.40715738809894
-1013.5193975516615,453.40457750608016,340.5933728643319
-1014.555429224047,460.8689001850786,309.15552201822237
-1045.05616087043,488.2217678819985,312.5307826831793
-1068.5300280931817,515.3451994309985,296.38867503173867
-1116.935956723244,581.8082627604738,330.76126913879875
-1194.2508399912306,605.5125858473588,317.7496902612003
-1221.2529253108862,524.6144198069678,333.3166779685214
-1230.267216633611,454.8321802042492,309.86932336730695
-1230.4303712276874,431.6193603320196,309.94478236706726
-1227.7485175875556,400.40074847170035,282.6184272916847
-1209.8219065634034,345.85000994223316,255.5979870801956
-1157.3167187571698,294.8662387257626,225.15945812280447
-1095.634085034135,240.33079593949006,238.04153304135463
-1039.8963968327616,196.8837472531395,188.0030387543147
-967.1192507125268,173.03768361265062,181.32491727552224
-920.4407213472491,157.34323137870732,197.7749792232822
-855.859034430718,160.4666221390587,171.25929853721712
-817.8705266324382,160.0322230323301,156.13180851768956
-782.5343007041141,175.375892889009,172.30756680415843
-736.2116522971658,186.62438243436853,172.96324432910325
-706.3390658379774,205.4565014556449,141.9506151438055
-679.8284837329771,216.71824731177315,126.61102415197853
-660.3162139976445,232.0782326278597,130.77656488199335
-653.0456373991119,247.35664064690798,115.13513789112491
-646.020812407907,266.43553099172505,91.62823186307251
-638.3137972702198,266.3763874513723,91.74386768162422
-653.7828922210949,278.0674338331643,87.54804138008393
-654.8199436096935,304.8400830048997,52.12065282231955
-677.666685361464,285.7775081194904,63.616525520947526
-685.2380782428252,285.8713220110844,67.42751092370995
-699.5885445080635,301.7044556499926,94.63139808191382
-733.6154548189239,317.58449623469795,109.76633202979613
-782.2375632861375,314.4784406499671,152.21915740849323
-837.5041425971153,346.45674108895497,218.00207002391235
-906.6205075127593,343.1916097749996,224.82703063737367
-929.414224021455,331.8666415136668,236.29781831716235
-980.1083958334397,305.0695191528198,223.85524108640567
-987.8154109711269,285.82033620043546,227.72914297950882
-1007.6009646515377,289.70035639081647,211.72163786818132
-1015.3069600730117,270.45015372221917,215.59553976128444
-1026.6502832261783,243.56125690220418,227.2906650079283
-1054.0908465174143,235.92970076427736,215.13156888437948
-1054.0296635446355,224.35796117940382,219.09520580422472
-1049.716263963739,212.8586214456517,234.89774795674367
-1042.6598277699318,177.87827647565686,223.34742241234267
-992.3755818755642,185.263061290043,228.00038749216097
-1000.4904834984426,165.9098672839349,220.09452769294307
-1007.8436571102264,177.6447614628849,227.79440481713945
-1026.7828463338653,166.2892017151627,239.3222966048549
-992.1022979304861,185.33138227631252,235.853222048304
-968.1093951553283,193.09550152192648,259.7339560400341
-925.3129254128578,212.18051016402137,268.15987110787074
-867.0748930572622,235.01399560502315,276.80502516149755
-813.3185134577049,265.44538654892347,265.7339662371962
-784.4075193873546,269.5844146574009,321.0974185884069
-745.3279152411884,288.7326457047004,333.39213696828176
-756.6977510158924,296.5936379905472,337.1202194429291
-779.9003737259922,304.47604431686665,332.82109588901415
-829.6686432165928,312.66844437193134,339.896906690868
-890.4508675235684,321.0872214262771,362.5060545650146
-955.2242610881392,329.501919615771,381.1301514788435
-1028.1900547077748,326.26636007199204,387.898007984378
-1059.6992856887928,326.3336613420486,367.80246057522197
-1097.6633202979613,311.32751755186536,386.90684382536347
-1113.2955698429128,319.1150902703778,378.798060499763
-1119.9951053621778,327.15147374485684,406.1427704669791
-1086.487230603723,334.31396042481384,371.29906746952327
-1032.9215379359925,337.66270846823335,360.315704139538
-970.6382913635136,329.62020669647643,380.89867589849746
-894.6582166183152,290.1327160651191,358.62297522599465
-814.3361902382568,281.6333814299481,344.1562613124768
-764.2405918432902,261.9375627762794,348.89794170282414
-695.1232072114332,265.20269409023473,342.0729810893629
-679.5195097204448,272.8546445524211,346.20487118434943
-640.8753243972203,288.03210066638457,346.73308418267203
-617.6472087817962,341.94755599516657,339.0495225178833
-633.3610356237859,376.74843091167736,322.99816960939773
-609.5057945373803,423.09657222395015,334.97269709839753
-612.2141607990498,450.4474004884441,362.3123084845488
-620.6023463670061,450.3352317050166,342.5644843040182
-640.1696807778396,446.54698597380354,334.4342869379452
-652.2482193205632,431.0585164148818,322.53215930006684
-641.4514640575529,419.1920788444577,303.1106443076892
-672.6058337964545,392.3154186189984,298.81050103756127
-722.0457546664763,389.00440007545905,317.70380303161636
-737.5964269143898,389.0890365211362,313.54642003130533
-787.1729897569508,405.0537135515187,324.52366506401273
-820.7634615286566,405.5951828606099,355.41494801996606
-873.2125649431764,425.69684856704384,393.80828315479806
-918.9356202168938,422.32260761829986,408.8327818368149
-956.7885057588474,442.1000035690068,423.8980691673508
-991.7148057695545,426.85932504983873,419.50105285699
-964.850382138651,430.48543590318815,415.9667164628085
-922.5168635568722,441.72984658369575,412.6383627436485
-948.264697934565,461.55516919641263,443.5826709426767
-979.583241983756,469.394747441787,427.38855776437424
-1021.1846043246167,466.05823599292324,450.3250345428867
-1059.740074337312,462.48718981507454,449.75909204468405
-1121.4532995467364,435.9164444535086,452.84883217000714
-1164.6586754906111,416.728444473903,432.6441751260625
-1195.9741603911634,405.2576567941142,420.43919177292963
-1273.095297578684,378.80621822946677,423.29847603411974
-1327.4563688925373,379.120290823064,410.7090596686943
-1345.9336266716973,375.60532903692905,433.99122024340636
-1318.2993172999957,371.6998159412236,454.04190013919134
-1271.9022296095,394.55471542269794,454.65984816425595
-1229.757358527122,378.7185226351507,451.4202097556251
-1150.1175222935458,350.7385294672493,421.3100294188128
-1082.336985616903,338.22049323673224,379.1967695390373
-1052.5102863872985,349.3150056339321,348.20963325906405
-1056.640137049859,349.27625641783897,340.2986748787813
-1072.1908092977726,387.9806049976292,328.160992795705
-1144.5090831221673,419.66624688349236,346.594402777707
-1212.6465204733524,478.4386105346883,368.9231286932847
-1293.000158056013,502.3784880667711,379.41192965997567
-1342.079099386641,530.0515466545661,402.13120688512396
-1389.3021572096486,506.9906644980702,377.9537354754172
-1401.8140751428878,448.91272758791234,362.26438182253884
-1364.6454191798425,428.96299959721216,327.5664982435389
-1305.1959639632291,366.1433822967069,277.64935018584333
-1213.2583502011391,268.74518821412005,283.27920339769446
-1133.893837345067,240.69687405994915,245.3161885047392
-1057.751627722005,185.80249116670834,230.94430819902826
-980.9517011415724,185.1396756282727,224.24681211218922
-908.8812183569314,176.56284256091533,193.95920115431878
-843.0717931199747,179.99418761758605,202.7817858290038
-785.869792436765,171.67330331968617,187.96836840307344
-739.0291281936238,198.4999974507095,200.35384152590336
-704.8115309509365,209.70158005027204,185.12947846614287
-693.2244956228683,232.7910142607313,181.30044408641078
-701.7768555011141,248.0857377391872,153.6487995390883
-697.3788194745403,248.19280794154992,169.4125924755141
-695.0242947387743,247.78696088878468,126.27859666654771
-672.2040656085412,262.9807324621558,114.79557239220327
-676.8478532424426,247.36377866039882,95.15543024376318
-680.4566289201716,243.59388782101945,102.96380517302036
-696.4427199910266,239.70672961714757,87.03848918845885
-693.1622929338766,235.6717125623939,71.4027726083831
-700.2686952221197,243.6051046993622,86.96802679814209
-727.7877766617551,224.3671386253206,74.84686411771605
-738.9118608291313,228.4286683016117,86.44032365792602
-754.5981553333709,209.16928818709755,82.34575517633444
-762.3327028088084,205.360648131625,82.24276383882366
-773.7015188672993,193.91127449230882,89.96028205350453
-761.4322933927489,197.86267481759828,109.75409543524037
-807.6468518811215,202.08837880417883,109.04743209964668
-816.0085248275406,205.8450133327895,89.28635160834742
-842.7097938643677,206.12237614271953,96.7346647428021
-849.6805738962848,214.09043863092904,116.2262342390113
-849.0809807630537,221.9646872275446,131.9074301621859
-857.060260129606,221.9555097816278,123.93834795776337
-857.9596498294526,210.14413688670444,100.41726787435059
-854.052097301321,217.85115202439164,100.44979682154457
-888.9794170282411,221.91981971417354,92.06375265763539
-880.0456832863415,241.47695696287727,123.52842204014624
-902.1031646892671,276.6796000673013,146.6270336965223
-966.7399162812991,285.12794889182345,169.17805774652916
-1043.8121070905968,305.03280936915263,164.03155001962955
-1074.1180729403009,320.8486078324403,175.29839445682268
-1101.1201582599563,336.49717283679956,170.91667388965652
-1102.7415070385912,344.8119388374216,233.65777304176248
-1082.2961969683838,375.8521003604697,261.33185134577053
-1056.9460519137526,383.95884425364426,324.4787975506417
-1046.2900174881331,415.53231735607983,403.02345857147964
-1045.647596273957,455.31042710813585,524.5624142801058
-1074.5973395604005,476.32371910897206,684.966833730173
-1069.4681670091215,445.72101584129143,728.3180290925036
-1056.7217143468974,356.1083550447911,669.9423350481562
-1041.3239995309307,231.40725935972023,584.2515028067689
-1046.667312486935,110.34858998740651,455.0677346494471
-1086.670779522059,36.90067454227489,427.24375806213135
-1134.9543422065642,17.435209781117916,371.64169211708384
-1181.4228100319683,25.46139609346719,363.06893791457844
-1206.1815196830723,10.776258967129449,429.4667394064233
-1189.4887652766236,18.702513090606885,465.0109874421949
-1145.4064333895878,65.14191900394121,504.7615648565005
-1083.346504667751,103.38698740140619,509.4869297874402
-1006.9320308158241,145.10867625539814,483.0181560471721
-922.3486103817309,194.61079981441168,468.4198987421801
-838.2821860676174,228.53471878776136,442.091845839303
-776.7372140333346,289.82170262016086,427.1091555220183
-738.884328491381,327.97234529630407,400.0744392835474
-701.4964335425452,377.59173621981006,357.29632443291035
-662.745178016958,427.55273207466365,353.7834020792014
-655.8019303227912,454.335578408529,326.32550361234473
-633.8821106086177,477.0273232959268,287.3305359118558
-638.253634013654,500.0984026145524,267.5643568394916
-627.211127143316,503.74082892730956,252.01878317264308
-639.7811689006951,495.8533240199253,224.38447380094124
-633.1366980569308,480.07933392136977,197.06525673904954
-640.1890553858861,476.44098647346453,216.59486165000285
-640.3256973584251,457.09798962948616,216.65808405520747
-641.1975547205213,449.1544003303881,193.12405357588983
-648.0867574554002,430.1101803368123,220.55747885363505
-656.419878347856,418.42627196851123,204.7732915929497
-671.5881570159025,395.4357502307108,216.3980564208981
-678.8862659521857,395.59788510857436,228.06157046493965
-712.639892317968,372.927554261649,259.02933213686634
-704.9604095180312,388.3079339019951,255.1686865545319
-740.3496606894302,365.2266574212397,239.01740145717451
-755.8728005995932,388.4904631041182,230.8576323209251
-797.6067260481409,385.11928130401316,249.86616224704665
-836.6322852350193,412.3273492986902,229.56667159529505
-854.8097464475638,451.36820422876315,252.7111704812551
-901.6514304069179,463.16122223185295,232.3464179918729
-913.4036597614885,474.7880264922273,224.28148246343048
-973.6138232729833,487.21224883115036,262.5840628553074
-1066.0929063441647,507.235396389185,257.20709926427475
-1130.243253302606,527.3931464873327,291.4991357905095
-1199.1964636241735,528.0314888366568,302.23878694559306
-1210.5153135882285,505.01037561246716,313.92065588146824
-1188.5098377121649,481.3804918091295,286.85738758903403
-1230.868849199268,504.8859702344838,282.2186985361974
-1283.8329093013415,509.41045107146687,308.8822380731443
-1331.8819372568614,510.3108604875264,367.0295156857847
-1323.418292689145,502.7190732819057,390.7297599078177
-1284.4957248397773,498.6555041731886,403.0999372874529
-1219.4276332896557,513.4872764909526,388.3262887938287
-1146.4261496025656,501.28127342160684,385.5363452351211
-1080.950171567253,477.59734465898146,390.5217378003702
-1046.6469181626753,481.0959909857087,379.2497947821122
-1050.2771078808769,473.4562771180781,387.0699984194399
-1066.347835397409,496.58242111220454,363.2035404546915
-1112.1534876843775,481.6017702273458,378.2667883528015
-1146.4057552783063,505.1500767336451,385.5230889243524
-1161.3547949605625,513.1089617759378,397.04690184721596
-1199.3902097046393,505.8067739748029,412.199884772068
-1241.127194301826,483.1262459657478,435.19856423957214
-1276.9804163501299,452.20539123961805,407.29403007143117
-1280.8655351215757,448.36615969775613,407.24814284184714
-1261.6744759933313,417.30152498559653,411.5656212875957
-1243.4725415916753,362.8201271586118,392.3990353484626
-1183.3092850259775,323.34895198666214,358.1110776870797
-1140.5423870536831,280.6360989736557,378.51967797362
-1068.7747599842965,229.5034491900904,348.3697287045016
-1019.7671987885773,228.84369280029372,317.70890161268125
-977.8976510837035,212.93917902647698,306.61642864790736
-928.1293815931027,204.74575925519932,299.5395981298405
-866.7475641528964,223.51057700641914,288.6225163536988
-837.3919738136877,207.45616494929465,249.8702411118986
-807.3552130442099,210.8813917086875,226.7604125771798
-777.2093426399433,210.47248550728332,207.5907674894077
-762.3418802547252,229.52588294677594,188.12540469987206
-736.0219850815519,233.01535182758641,168.88539919340448
-732.1134128372074,240.72338668148657,168.91803011221978
-717.2999954112771,232.7298312879526,153.4683097693912
-702.240826378019,240.24513977759992,141.89453075209173
-699.2601958874847,251.58234463348853,114.42847455553121
-695.1058720358125,236.18055095266988,126.3163261664279
-707.4576945236141,239.93310661642866,102.57121443102388
-730.7694268685026,232.34029969459502,98.32297471613651
-746.1283924683762,240.19619339937697,98.06641411695126
-753.6722530119869,244.15881060300921,101.86465306705145
-760.5604360306528,244.42393681838348,125.30884654800572
-798.4408539103569,241.0231832481021,144.375500298267
-807.4021199900069,236.90658889631018,108.93322388379316
-810.8467213574463,237.03915200399732,120.65588146818742
-845.6363793956142,241.14147032880754,116.19564275262195
-861.6500028042196,233.38550881289743,100.28358307882918
-864.7672752672933,222.01465332198055,123.82312002569687
-899.5844656432117,222.24816833475248,119.37613762090011
-979.7433374291936,215.34061070803997,141.7466719012099
-1029.2097709207528,208.16180856867538,160.65323020603367
-1049.3797576134564,177.18996803189674,140.8319864581687
-1007.1533092340402,172.95916546425133,137.55461854965765
-953.0961133516543,188.0173147812964,138.31328741211323
-913.1986968026799,207.37152850361747,174.16752917663015
-933.0107631046282,207.3837650981732,158.1712409436454
-971.6549484278526,230.82500140210982,149.66476829498353
-1010.2726211295397,258.1350410180847,141.14503933555295
-1024.7026252593905,281.67213064604124,164.39660842387565
-1042.6394334456722,316.9125032503455,195.40617846053445
-1033.8392825276728,355.74533607297093,218.95448496683375
-997.4955769809263,398.3755920727262,258.6020710436286
-938.0308260211185,421.5180515262603,302.5854904580056
-890.2622200241674,406.0968832373951,350.4479103465506
-862.3342323831279,425.43682093273446,374.3490386625403
-860.8066974960869,410.3725533184115,421.5180515262603
-884.0633651654746,410.5173530206544,417.2444208776698
-952.4985596508494,407.42353403047935,443.7019777395951
-1039.8148195357235,400.71176191665865,481.66295320012443
-1132.6293892409744,393.62065537161016,472.447777783443
-1198.4928594372188,363.1423574819128,467.63879612303896
-1230.3283996063897,316.78503872372323,447.69620614582965
-1219.8049282884574,285.5409339580795,424.41098642247863
-1185.776998261384,250.35154716442415,413.2654882146299
-1143.173254883166,242.35493262225125,421.7801185929957
-1081.0725375128102,207.2318273824395,442.45180566248416
-996.9000627125471,160.08422855919198,436.0224949396584
-876.4603610815112,143.960475799585,469.2774800772945
-804.7437198227734,104.3995656008933,435.16389388833096
-705.4539521651126,111.12357430926974,409.1560318763289
-643.8263831175785,145.39827565988386,402.1148914257163
-608.8725507691211,164.50775749109025,406.4976317090954
-567.3588840225766,214.1658976306894,371.6304752387411
-563.5329087914834,248.88621496637487,363.7215562908843
-571.3500532801722,291.3992036016377,351.68788526153173
-575.0414259711523,353.2602876619437,343.57400335486636
-590.2912819362372,376.5913946148787,343.26706877476
-582.9941927161672,395.7386059459653,327.6134051893359
-610.814090438631,411.183227707729,299.67216123752763
-610.9772450327075,407.2797540444495,295.7584904121183
-633.4446523532501,423.0700596024127,311.066470201343
-637.1339856118043,407.6937588269185,318.9131864602082
-651.7291837681574,408.0180285826455,342.2412342645042
-671.0507665716632,381.1199543167137,345.9662575905126
-689.5270046346102,377.6049925305788,369.24943788143764
-693.189825271627,385.40582155985993,373.0927482881515
-719.6453427011264,381.8827020440212,388.406846374654
-746.7290053178201,385.9258768284787,384.062855307368
-788.7362147114459,401.79572025105415,391.2294208521769
-837.6316071237375,417.93170960521695,421.8392621333483
-883.163975465628,441.6380721245278,436.77606522104907
-909.3207160447248,461.3604033997339,455.9406117277563
-927.9335960802109,477.1211371875208,471.3077350573336
-946.8472923985255,488.94474667699984,478.8332407091107
-1003.9666960684842,489.5616749858515,497.59907817654357
-1063.1357293265287,508.97605196473825,453.47595764098855
-1128.479144254154,513.3842851534419,456.40764175330014
-1209.291654132655,471.5555260970873,467.11160284092944
-1222.6805280090553,424.8443658129943,423.8980691673508
-1265.202694090235,405.8276781571689,423.32498865565714
-1330.5155175314712,414.10573437412376,426.2434164572
-1382.6434103389029,422.70398148195363,476.4542427842332
-1402.0690041961323,380.33069396786874,480.2302519208905
-1358.4047559564176,368.73957977494865,520.1694768345969
-1284.5263163261666,383.78651221365095,536.9244339300374
-1173.2140945174958,378.9520376479226,526.8333222864078
-1050.919529095053,389.33172897982496,497.2340197722974
-1003.1927314628341,361.31706546068233,435.2495500502211
-953.5621236609853,391.7086874722765,416.26651302942395
-988.8983495893094,434.2930562424478,388.1213258350201
-1068.8155486328158,481.5140746330297,406.38852207430676
-1147.384682842765,501.04164011155706,358.04989471430105
-1234.9171225647904,521.3095195607063,384.14341288819327
-1307.837028954842,525.8115666410039,390.88475677219037
-1389.383734506687,495.38425456195546,377.9924846915104
-1435.7604278729232,437.7794659746193,385.3405597222294
-1467.871291419598,410.66215272289725,353.55498564749433
-1460.570123334676,352.5719792181836,353.8598807951748
-1395.9609040803946,320.9454808726732,335.31124288110624
-1320.5324958064173,262.0120020598268,301.317983205274
-1215.9707953276604,238.1669581355509,322.58824369178063
-1119.5464302284674,210.41028281829168,331.97575114845546
-1035.2668852258419,217.35658966109736,317.5161752484284
-935.8098841092526,208.67472582380327,299.41213360321825
-889.1048421224374,216.1574033946353,311.8598094150398
-886.0151019971144,242.96880178246397,284.34378712404344
-828.4317274502507,269.5007979279367,273.3430886184375
-817.9898334293566,265.26999536029126,242.11631902841444
-791.9697348227988,284.13168615174396,211.04556601897696
-789.4530752091694,268.31894683709527,175.81539057680249
-802.0220972503353,260.431441929711,148.18108120510064
-798.7681828147228,233.21725563775604,136.54815864744845
-791.087680298573,229.28930878536505,136.67562317407067
-798.9853823680871,221.577195066613,132.6589610111506
-810.7365920064448,194.58530690908722,132.57432456547346
-783.4347101201737,182.8738662030357,144.79664309422688
-760.968322515844,186.39290685402256,125.49749404740662
-734.0213018716892,163.00673522558674,129.90470751989722
-707.9746906435939,166.4278831201277,102.81186745728665
-708.1378452376705,143.21506324789814,102.88732645704701
-719.4250839991231,124.06377305195966,114.55695879836644
-750.4713638194492,151.27999877634056,102.22553063482435
-757.4961888106541,151.51045464047357,121.74289895122187
-768.8119796260701,186.418399759347,121.45533897916212
-798.248127546104,171.55807538761965,164.23549326222513
-804.6468467825405,202.84092936935653,195.4316713658589
-785.9799217877666,194.8178022056462,180.04007484717005
-755.5332351006716,179.0356543773868,172.70015754615494
-733.1759571311305,167.08050149643356,153.45199430998355
-698.5219213492885,143.63416661143208,157.97443571454065
-695.5412908587541,154.97137146732067,130.50837951798016
-687.370304844162,162.75180617234224,142.37889595325623
-633.0959094084117,189.45103577674334,147.02574273579663
-636.7587300454284,216.5612110149746,146.8799233173408
-656.270999780761,220.51057190783806,138.72525276215632
-708.1755747375506,260.05924551197404,188.83410746789173
-769.4493022591814,276.0779675016443,195.71107360821486
-822.2257345780671,307.68407152289524,222.2869175508456
-889.6524297288066,331.87683867579653,272.21528248688395
-923.3244787975507,359.43059046667315,295.1660352923782
-941.2021434434798,383.10024320231685,330.13924224888217
-971.5111684418227,379.6056757404415,345.3962362274579
-978.5094808114903,383.70493491661273,364.9003482330868
-996.6043450107837,395.7335073649004,395.98537726950593
-1010.8181693034829,392.29196514609987,431.10542336067874
-1068.1323387701204,365.82828998689666,449.9599761386407
-1114.4784406499673,350.7109971294989,449.31653520825165
-1177.364339504316,312.25953817052715,421.03164689266987
-1198.808971463242,253.93279050440265,369.8877802307618
-1227.9320665058915,199.53500940688207,318.61440960980565
-1242.2998679467505,168.0247587096511,243.93753218479299
-1235.9368387777683,152.182447624826,208.76548056675827
-1231.7254108181694,163.826587060821,216.63768973094793
-1246.7560277974642,160.18008188321193,228.19923215369167
-1206.5078288712252,171.8986606027543,275.8577087996411
-1201.0931357803127,160.67362453029324,323.07260889294514
-1157.0210010554065,168.493828167621,370.80144595759003
-1063.7475590543154,183.42553267425677,391.7719098774811
-979.078482458332,205.915373751485,385.1141827229482
-859.7574095129327,224.26822615266175,378.9907868640158
-775.7735822120704,265.89508139884674,348.7113336358492
-675.584424854563,323.0501751362596,338.24496642584376
-609.750526428495,388.27836213181877,335.0869053142511
-581.7674741119547,434.6652526601847,354.97239118353366
-554.4676316581097,500.1911967899334,351.2361509791825
-557.4768142026076,542.9142469650697,366.74501486236386
-557.8041431069734,573.7270117726238,350.93737412878
-558.1324917275523,585.2304303712278,339.1198829365788
-567.0121805101641,592.7192262393377,303.64089673843773
-567.4751316708561,584.8796479939633,291.8856082352282
-571.5743908470273,588.7097020899084,283.96241326038967
-568.2929440736644,565.3653388262047,272.31623439196875
-590.7583119617811,523.2265860411048,299.5946628053413
-621.2039789326631,500.39004145146407,314.9138594729087
-666.7088149368032,489.3454951487002,337.817705332606
-678.1592082923323,466.2907312894822,345.57264713230313
-713.3863245858679,466.4222746809564,329.34590303518536
-778.4850076223788,447.72067933494117,344.1328078395783
-812.5119179332393,444.29137371069635,363.2575854139793
-865.7513014128168,448.7475335614099,382.06829039478316
-942.9305624244774,472.4865269995361,372.9826189371498
-1010.820208735909,488.83869619085016,411.1567150861916
-1043.9752616846733,512.6613063584406,449.8263933147406
-1070.324728628023,563.231072792442,457.11022622404187
-1174.1726277576952,552.4975399346363,463.4406244742089
-1213.1971672283605,541.0858957952003,451.1204131890096
-1203.326314286734,494.2299358088644,412.1794904478084
-1231.5316647377035,455.5113112020925,384.41567711705835
-1285.6378069983125,452.024901469921,379.6923516185446
-1346.7799911284692,429.4596013929324,398.475524261598
-1389.4959032901145,402.6716564780022,394.0020292352639
-1395.5122289466842,410.87935227626156,440.97933545094406
-1391.3313924734748,399.3463619074812,452.85495046728505
-1337.8472771027825,391.0897197309989,441.9103363533929
-1250.875681297895,347.50704878832227,404.113535203153
-1163.4452131971673,311.7649758072329,378.0710028399097
-1133.332993427929,307.48726629379047,358.91359434669334
-1160.9061198268523,338.43973222252254,334.84829172041424
-1199.2780409212116,361.9492895127287,334.1946536278954
-1290.8893454951487,389.9160263698613,352.3507007999674
-1348.9927753106313,444.353576399688,331.6739151494139
-1410.4000856561622,441.02930154538,338.6141036949417
-1437.565325569894,452.77541260267276,330.3187123023663
-1434.3940081475325,452.5745285087161,310.744239878042
-1431.0289446447055,440.8355554649142,299.0603315097409
-1413.0717421341642,409.46398617264816,268.0375051623134
-1344.8527274859407,381.60737866651715,241.68090020547285
-1301.8105061361425,338.96386635599316,269.9423350481561
-1241.8715871372997,287.85263061290044,231.76619946668845
-1138.513151789857,248.25908949539345,221.6740681068459
-1031.6774841561594,231.71113479118765,195.85791274288368
-962.1481341742593,215.7688915174907,204.80286336312608
-877.9991128468947,222.68154772526808,186.41636032692102
-815.989150219494,214.56970525102867,199.1464975297375
-782.1814788944238,225.66931622929343,172.143392493869
-716.891089209873,232.8318029092504,165.24807146171221
-689.3995401079881,267.51133159641677,173.39152513855396
-670.5684408029247,282.70000458872295,157.92446962010476
-667.042262138447,294.1738514171507,146.16408253583032
-663.4620385146815,294.07595866070477,138.36937180382702
-660.0449694849924,290.07459224097937,126.65997053020146
-657.4722254796492,281.99945955040715,91.40420021108126
-661.5714846558203,266.5201674374022,87.47033900465502
-692.2078385585293,255.2206920813938,94.89876767295662
-700.5419791671978,243.53678371309266,79.11488632713517
-716.0916316988983,224.3120739498198,78.9468370952364
-744.0196193399378,204.9721362544804,55.04601469411063
-758.9146140629064,182.04993550294955,74.52330816333816
-767.984989777345,162.45812790300462,39.13201755951319
-760.6318161655612,150.7232337240546,31.432446350180747
-764.431278775117,139.18106590935744,35.33908113372049
-764.431278775117,158.4904121183075,31.349339478823044
-794.7953684489607,147.2592577485686,46.63090861813158
-767.6851932107295,166.3952522013124,46.97241157785789
-752.5169145426829,170.07642773016272,39.33800023453473
-769.8214986769183,197.7505060341707,90.00545548173945
-819.5071711542678,217.54931602535018,97.0436387553344
-872.3111358109038,225.97727052561274,127.62156291903966
-879.0096516139558,253.32300020904185,150.97612334487314
-862.6136346254839,238.00278382526147,182.6709426766531
-859.2506105550826,245.5731569904096,166.99688476696937
-866.712893801655,261.1421841301566,170.75759816043197
-912.8999199522773,269.2366914287754,170.03767851406954
-1008.4187770543459,289.4953934320079,188.16211448353926
-1054.386564219178,328.5393075107198,187.342262648305
-1088.1391708687472,363.79701529064465,206.34059541229678
-1075.8515905023633,390.92554542070945,222.131920686473
-1054.75366205585,418.26821595549967,269.4508318335008
-1029.943966594097,426.2372981599222,316.8910892098729
-994.3048849505184,387.5900536880587,352.876874365864
-981.2994243701979,380.14000703604194,396.26783866050084
-975.100569511505,384.56047681930124,463.06434919162
-1001.3929323469279,384.93981125052903,482.2921181035318
-1039.8454110221128,377.53361239567033,485.6653393360628
-1094.4512142270808,343.0294748971362,473.1901311864909
-1191.9870699984194,347.334716748329,436.39265192496936
-1295.91654642513,344.3031004471456,438.7706301336339
-1384.764420061897,333.3472694549107,433.55274227182576
-1456.0629776733138,310.22622404184915,381.54211682888655
-1429.529961811628,267.42771486695256,378.1597181504388
-1393.0649100355374,224.12954474769677,327.8316244589131
-1312.272794481296,184.8510959399999,333.0994784151571
-1224.403848408988,133.77045168329656,322.8136009748487
-1077.9726002253574,94.02130187168912,332.99036878036844
-957.7827290665009,81.69792946622955,358.3802827673059
-828.6010003416051,115.97946291547063,411.21993749139614
-741.9169645087773,193.04145656263864,451.5048462013022
-700.5470777482627,228.21146874824737,526.5732946520984
-683.9348809226393,301.76971748762327,546.1967134546456
-629.1700019884466,359.48667485838695,558.5964626044573
-622.8824318192247,409.27533867324735,507.5025620369851
-605.1148965242974,447.36989695767676,456.62076244181253
-595.5734119194628,469.9453941967951,393.89291960047524
-577.5336123956703,469.488561333381,358.84323392799786
-573.162088990634,465.72682822370535,374.6202831751924
-562.4469110246619,480.8726731350666,347.25721831614266
-562.72019496974,500.11471807396003,335.41423421861697
-552.0590619630558,488.21361015229473,312.0657920900614
-552.4404358267094,472.67007591787205,304.2639433445672
-548.8326798651935,457.13164026451443,300.4451061269649
-572.1168798723315,434.097270729556,300.17488133052575
-586.6580330693969,442.15914710935954,323.47743622949736
-636.8066567074384,434.80903264621463,322.7503785696441
-670.0157546154907,450.8930164735155,361.4455497035176
-712.8407764119246,466.5589166534954,345.05259186368437
-773.8422397046903,482.64697934564816,359.78341227636355
-812.2406734205872,502.2877333238161,359.14201077840045
-884.9107493384593,522.2996640035079,369.75929598792663
-923.0634314470285,518.8305894469569,380.97311518204486
-968.2419582630156,534.9023366797021,407.71517286739106
-999.4248800558805,542.7755655601046,395.4469671090536
-1057.3131497504246,531.6157913252742,394.61793782790255
-1123.3907603513944,528.116125282334,377.9414988808615
-1146.6198956830317,493.5100161625021,381.63491100426756
-1125.165066561976,469.7424706704125,338.86597359954726
-1171.2154507400592,458.5623021113224,346.0631306307455
-1270.3420638036437,494.3594397679127,368.0053841016046
-1361.290552839145,499.31831971162427,409.79641365807896
-1442.786272580341,476.62861425665244,396.8786486720746
-1435.627864765236,476.43180902754773,381.2882074918551
-1392.7793894959034,483.945078084769,393.6787791957498
-1307.5107197666891,475.6894556244998,410.6815273309438
-1220.977601933382,447.44535595743713,357.129090973982
-1156.1236507879858,431.32772149510794,342.4563943854426
-1136.800028552054,419.6071033431396,346.7096307097735
-1160.2738957748059,408.11082275802653,338.54782214109815
-1188.3670774423479,423.4861038173077,302.75374363314694
-1214.5839812780105,435.4718481846503,321.9437830451786
-1259.9205641070093,447.6401217541159,344.7711501889025
-1278.9994544518263,455.56127729652843,348.38298501527026
-1298.2414993907198,440.26859325049844,352.0712985576115
-1280.0905507997127,435.9776274262873,320.9607766158678
-1287.3611273982453,401.38987319828897,340.5913334319059
-1249.9375423819552,377.64068259803304,313.7595407198177
-1208.3127265681962,346.22628522482194,298.7901067133017
-1124.471659537151,310.5821050001785,280.5433047982747
-1056.191461916149,271.1537579091739,258.15135647749236
-1013.9966247393353,224.43647932780308,262.8655045300893
-965.0736999892931,192.8599470767286,236.23255647953178
-923.4213518377836,165.31537273176875,221.25088587846005
-884.6690765959834,157.34832995977223,229.70739243268602
-823.7777426542194,164.4047661535795,207.04827846410348
-796.3667511331597,187.4768651884181,215.23048135703837
-766.5757419710096,194.7025742735797,184.2555816716208
-729.2408722652486,178.656319946159,153.47136891803012
-709.4012736255501,201.82325258880456,165.46425129886353
-682.2360337118181,209.3864877404619,169.77051286626934
-671.4392784488078,216.82939637898775,146.35986804872206
-671.5218754620589,224.532332651823,142.40744800721959
-664.9059566722582,224.19888545017926,111.11133771471403
-668.7319319033513,228.09828024860687,111.03995757980555
-688.708172515589,224.20704317988304,91.13122218086708
-696.605874585103,235.80427567008107,83.12461441980697
-708.247974588672,224.28760076070833,82.98899216348092
-712.6194979937085,208.73998766143384,71.20209245766904
-715.873412429321,216.64380802822578,86.82526652832519
-731.6137518928483,208.95718721479815,78.76614338229672
-731.5046422580597,205.12203453778812,82.70530711303044
-715.8999250508584,212.77500471618748,86.83791100936611
-714.5100518525695,216.98541295957338,126.09096888335976
-737.2487036857643,232.70739753126708,133.5461141164414
-736.2126720133788,244.55344077743166,160.9938154211683
-755.9166483967513,240.73052469497742,148.93771063513026
-759.8242009248827,233.02248984107726,148.90507971631496
-782.7545594061173,240.97321715366616,152.45981043475604
-813.5000229436149,252.81722096740484,151.95912977418388
-816.6988727037267,249.1493017493232,171.5468585092769
-835.6390816435787,257.104107926764,179.08562047182272
-853.1618850473914,292.447471868579,221.87495220080254
-899.2408212794381,316.01719241535085,221.1050664600042
-959.5600944257213,332.2755477150709,255.46848312114741
-1012.9636522155886,352.13859982766803,266.37536773515933
-1077.0038698230283,368.4611972488057,304.6065679921278
-1122.014143463874,388.43539842861736,335.26229650288326
-1163.0373267119762,408.41469818949395,369.9020562577435
-1175.885750995498,405.31476090204103,444.28831456205745
-1173.2140945174958,417.5707300658227,518.8540429198555
-1156.5519315974366,421.6281808772619,554.4115472663958
-1137.3914639555812,386.69474285306404,558.7412623067002
-1083.3567018298809,339.9560502312207,571.4826163878594
-1060.4028898757476,277.94710732003284,579.8840582665845
-1050.776768825236,215.58126373430275,537.0682139160673
-1060.3621012272285,161.10292505595694,493.9372772557398
-1109.1147333697033,95.17847583017648,434.56022189024804
-1133.567528156914,79.57426848108172,398.9252191115213
-1145.7837283883896,83.36118858121786,379.1060147960823
-1157.0719868660553,141.44687533459438,374.8170884042971
-1109.7163659353603,183.85075433506856,398.93031769258624
-1085.334951283058,187.84906160615503,434.6040696874061
-1060.6068331183433,242.1407922175259,470.11262765572343
-982.7239679197281,280.36995304206846,486.8492298593302
-898.9298078344798,314.2255510291486,452.66834240031005
-808.273977352103,324.6388929960792,399.0465653408657
-732.0512101482158,358.5883048747534,368.67635736974404
-660.2540113086528,388.5628629552396,322.55561277296533
-601.9068693182687,407.5622154354444,335.13891084111293
-575.8062131308857,418.72096995406184,308.0205778731779
-552.0855745845931,426.41676821340627,324.04847730876503
-544.8965752830987,430.0887662963398,308.44477981777675
-557.2749103924378,410.66317243911027,288.70205421831105
-549.5413826332133,433.7821784197458,284.81489601443917
-547.4866544640628,410.12986085972284,237.8304517852682
-559.3745060749594,402.41264855990585,229.8287386620304
-555.9023723697695,386.8405622715199,222.08399402446304
-557.3483299597723,394.2008738967946,178.86740120224542
-587.3024937159989,383.07271086456643,205.92863006225372
-610.7508680334264,394.7545798004416,193.763415641427
-653.0028093181668,395.11657905604875,197.05403986070678
-683.0936150469325,403.2630918815294,216.1992117593674
-740.6780093100091,415.3497881539568,219.220630898421
-770.4965508099098,423.564621965707,246.2186373532246
-799.77056385208,431.9160977499962,288.9223129203143
-835.0782377264409,420.4412312053556,272.7343180392897
-846.2023218938172,424.5017411654337,284.32747166463577
-873.2044072134726,440.150306169793,279.9457510974696
-904.14157739901,444.22305272442685,275.5436362060439
-914.9658649997706,471.5300331917628,290.98825796780756
-929.3989282782603,495.0671228197193,314.2398270561303
-1009.013271606512,546.224245792396,340.3476212570042
-1112.7245287636454,554.8337097785687,346.61377738575356
-1193.129152156955,551.726634477625,361.11822079915163
-1215.7056691122862,571.3510729963851,372.48805657385554
-1185.318125965544,547.8323382602622,365.17363217816484
-1173.2140945174958,547.8802649222722,381.05265304665716
-1216.307301677943,563.4768243997696,356.80686065068096
-1292.7554261648984,556.5060443678525,375.3085916189525
-1326.446849841689,541.5723004287906,406.25086038555474
-1330.0872367220204,533.9336062773731,414.0720837390955
-1301.2292678947451,549.644373970724,465.4708794542479
-1249.6622190044513,565.074719705506,505.43763670570485
-1181.2290639515024,529.549846277781,486.9593592103318
-1104.046743791203,505.8108528396548,496.04503066796514
-1074.7706913166066,497.4583573391526,453.3403353846625
-1129.458071818613,528.5851947403038,424.9442980018661
-1222.4867819285894,529.1633738330623,407.8507951237171
-1269.2203759693678,537.1202194429292,391.4252063650686
-1308.112352332346,525.7432456547343,383.03192221604735
-1362.9322959420394,498.90839379400717,362.67838660500786
-1363.421759724269,487.1989925203817,350.936354412567
-1402.415707708545,460.34782520024686,342.59303635798165
-1415.3151178027158,406.03468054840346,315.1106647020135
-1381.256596289253,355.40577057404926,307.94307944099165
-1335.4509440022844,293.14903662310786,308.8394099921992
-1263.2754304477066,222.81003196810332,294.4593719567844
-1151.8714341798677,190.96225520437665,292.31082989604
-1052.3981176038708,147.5305022612207,282.1728113066134
-938.3438788985026,119.21502245924961,244.73087139848982
-841.1618646530671,141.85374210357259,265.73294652098326
-795.7386059459653,141.29187847022175,242.86784987737917
-750.3704119143644,152.30175442174445,216.03809659771687
-691.7234733573647,175.238231200257,236.46199262745182
-670.2941371416335,186.22159453024227,185.726012450735
-639.0031254301928,213.1329251069428,193.95308285704093
-620.7175742990727,228.18495612670998,162.77933851009266
-606.1233958589326,266.48039850509605,131.4720113392443
-594.4262311798627,285.73468003854526,131.58214069024592
-610.4673869262185,293.42028113576,111.69257595611141
-626.4544977132864,289.5331229318881,95.76797377289901
-626.5085426725743,301.1048625167616,91.80352108008343
-673.9773521029099,281.8454824022475,59.76046866157149
-696.6619589768169,305.3040538818047,67.19073281905646
-723.3907603513943,301.71261337969645,74.65179240617337
-730.606272274426,294.1707922685117,90.26762452009606
-742.9846073837653,274.7462181274951,70.5245930057665
-742.5206365068602,263.2764501639194,86.26870541928182
-727.379890176564,243.77947617178143,82.63668021189704
-731.2333977454076,243.8090479419578,82.57886230262119
-743.4200262067068,232.15573106004604,66.7371630475239
-774.3296640544937,240.09728092671813,62.32270958992113
-758.2069310110996,244.01808976561824,82.17413693769025
-761.7606420133278,247.9847858341024,89.9567130467591
-777.3378268827786,244.2006189677413,85.81156664100382
-781.3555087619117,240.32773679085113,81.83987396307609
-804.5030667965107,236.637383816084,81.50550901684062
-804.2858672431463,267.58679059617714,81.40445514013452
-814.9470002498306,298.7972447267926,100.7625437840649
-822.2451091861136,318.2687258136061,108.4366220880729
-844.5208098586164,361.1396348396242,123.65690628298147
-900.5236242753643,365.8996701218051,173.82184538043063
-935.4234116645339,412.45583354152546,157.44418328379214
-980.3837192109438,420.85829513646354,192.0635487143928
-995.5254852574529,440.3542494123885,195.69577786502018
-993.7532184792974,460.10921160641,242.7505825128867
-981.3748833699583,479.5337857474265,262.49432782856536
-924.9172755222222,487.47023703303375,333.95604003405856
-888.3278183681483,506.9906644980702,385.4578270867218
-862.6166937741227,526.772139313629,456.41987834785584
-861.0626462655445,534.8860212202945,499.5865050756375
-886.537196698159,516.1609724013808,546.363946913574
-935.4866340697384,524.5583354152541,576.9992811000699
-1000.8310687135771,509.6582421112205,583.9200950375512
-1105.4437550029827,467.83662106835675,574.6447563643039
-1176.772904100789,421.5374261343069,526.636517057303
-1205.7940275221406,382.61383856872635,475.3131803419109
-1243.4725415916753,304.8910688155487,404.3684642563975
-1237.425624448716,261.9345036276405,365.3571810965009
-1180.1685590900054,222.73253353591699,358.4975501317984
-1131.5178985688283,171.77833408962286,328.0019170664805
-1070.4572917357102,124.80918560364651,321.2259028312421
-986.0115329903689,97.03915200399729,318.65927712317665
-882.0229130233057,107.80745718466551,316.25580600918767
-808.2352281360098,149.86667210515316,325.0692132379559
-745.7358017263797,211.39226953138942,337.5709340090653
-674.6840154385036,296.24285561328287,369.7460396771579
-626.2627910652466,373.6709273809099,417.30560385044845
-630.2539603228422,450.9032136356453,397.3619941570262
-599.2372522726926,516.3659353601893,389.7569506406368
-592.2124272814876,554.7541719139564,362.2603029576869
-577.3449648962694,573.807569353449,342.7959598843642
-566.139303431855,581.3534693294857,331.164057042925
-556.2419378686911,576.9850050730882,284.23161834061585
-568.1297894795879,569.2677927732713,276.230924933591
-595.3215420148574,538.5264081006256,275.92704950212357
-625.139063798545,508.1225494944758,310.90433532347953
-647.5228543896235,477.59122636170355,338.1440145207589
-677.5871474968518,470.2961765740595,361.2660796500334
-708.7415172357533,443.41951634860027,356.96593637990554
-731.8880555541393,401.110470955933,364.61074882860106
-774.7671223098613,389.7283985866734,352.2334334354749
-800.6505789438801,370.9013781464619,387.2311135810904
-849.8722805443247,379.2304201740656,410.01259349523036
-872.8842163225975,375.5747375505397,413.6050537135515
