acc_x[mg],acc_y[mg],acc_z[mg]
-636.1958466958646,-21.615128509735744,767.7820662509624
-651.4181703231991,-52.34325687161264,779.4313042680222
-659.6156689593287,-44.68314867972244,763.5838946021323
-640.566350384688,-37.16284358063152,755.9951665451506
-645.9198605028222,-37.50934314980141,712.7449230879047
-646.8478022566321,-14.570622995620319,681.2571061473593
-676.4481244869553,-14.024768906813234,716.1334400636304
-657.0174320486609,-10.270581697113695,720.3367102935255
-664.4786955790204,-33.32075683337328,732.0756833373273
-629.4157535957744,-18.045305991342612,740.3986070676532
-646.9650696211246,-25.189335807844678,791.180474473954
-650.9276868247567,-21.325019247143523,787.1831869190805
-673.6663386579517,-44.22203300821382,802.6186312349274
-670.4399565600894,-55.9947586586653,787.0077957304483
-667.1860421244769,-63.89878296869982,771.3847236314135
-659.9154655259442,-48.62027297803022,755.743296640545
-648.1652756037995,-2.3190284143922746,751.8388032610526
-654.7536620558499,1.882844804290966,783.1226769590024
-652.2645347799709,1.5110460758770836,743.915608286214
-652.7825506161636,5.242952486323056,728.1966828631593
-657.1805866427375,-14.173545502286716,716.4220197519031
-661.2798458189087,-10.343491406341617,708.4988247770647
-667.4868584073054,-9.90769528840124,751.5746967618912
-667.7315902984201,-25.416834494960057,747.6987554363621
-675.8199792997609,-40.90061335930211,739.7806590425885
-667.9773419057477,-40.92590232138396,743.8228141108331
-675.3845604768194,-17.61988038728822,747.5580345989712
-652.2370024422204,-13.929629384142395,747.8925015168279
-675.1938735449925,-9.848174453049717,751.4594688298248
-672.1581783789572,-10.08315785716835,727.9580692693224
-660.5976556724264,-10.172423814452438,728.1314210255287
-660.5711430508891,-6.303702079711217,728.119184430973
-687.8995375586975,-17.76998261383857,719.8992520381579
-660.5160783753882,1.4337413897712268,728.0936915256485
-660.0796398362336,-13.904340422060542,743.8503464485834
-667.7591226361704,-9.976097851967799,743.7218622057483
-671.6676948805148,-17.683816593841936,743.6892312869329
-651.0367964595455,1.8188780062508607,779.2538736469642
-663.6873957977496,-17.67494506278903,751.6583134913554
-664.2329439716927,-17.81168900694937,735.9516246628565
-656.3087292806413,-6.230853553456074,739.9560502312207
-641.3586698821719,5.119475050093559,724.4431074831875
-660.3804561190622,1.4679426715545065,732.0195989456136
-652.7285056568758,12.98037556148124,728.1711899578348
-667.4868584073054,9.401722300683721,747.5855669367216
-656.7441481035828,-10.202158739222876,728.1895448496684
-671.7217398398027,-25.42121927467586,743.7147241922574
-679.2656003834134,-21.458806014286225,747.5131670856001
-659.7523109318678,-25.40786099228585,755.6678376407847
-648.465072170415,-25.56561109043354,747.9883548408478
-652.6459086436246,-14.032212835167975,736.1127398245069
-663.2784895963455,-17.57225964014215,763.4380751836765
-655.8998230792371,-6.128239510944105,751.7358119235419
-659.971549917658,1.5705567140664753,743.7993606379346
-657.4803832093529,-18.110669800594497,708.5814217903159
-652.7550182784132,-10.19777395950707,732.1735760937732
-660.5160783753882,-17.875625213503085,732.0828213508182
-660.8434072797542,-6.372114840439906,720.265330158617
-647.9735689557597,-13.856821646535773,759.7303870332887
-655.2716778920427,-13.69468676867228,771.3939010773303
-667.9232969464599,-13.87905145997869,739.8081913803389
-659.2618274334254,-13.699071548388083,767.4098698332255
-655.8998230792371,-6.128239510944105,751.7358119235419
-652.6459086436246,-14.032212835167975,736.1127398245069
-648.9555556688575,-17.96495235375995,732.2571928232375
-660.9514971983298,-41.15646015713827,724.3064655106484
-649.5551488020884,-25.839200950375513,716.5759969000628
-656.4443515369674,-6.265054835239353,736.0301428112557
-678.9382714790474,-13.652980375561484,755.3405087364188
-651.9647382133553,5.448180571346995,751.7562062478013
-652.5908439681237,-6.29481015433405,736.0872469191825
-660.2703267680605,-21.676005567650527,739.9489122177299
-660.7067653072152,-25.64729035909307,728.1824068361775
-657.2356513182383,-21.91094818312064,716.4475126572275
-664.915134118175,-17.982695415865766,716.3190284143923
-660.5436107131386,-2.434980344969995,728.1059281202042
-655.490916877833,13.283741134842174,759.5254240744802
-664.2064313501553,5.3664299225525545,731.9492385269181
-667.6500130013818,-13.810628502087871,747.6610259364819
-664.3695859442319,-17.845951471705426,732.0257172428915
-660.8158749420037,-41.122197692382215,728.2323729306135
-660.1347045117344,-21.641743102894466,743.8758393539078
-676.1758602580903,-13.956345948922415,723.9862746197733
-664.7784921456359,-17.948534922731007,720.2459555505703
-679.1564907486247,-25.29334686156843,751.4523308163339
-667.4328134480174,-2.1702416217566656,751.5502235727798
-644.2842356972055,-17.78945919350645,755.8738203158061
-655.8722907414867,-2.259517776202883,751.723575328986
-650.8461095277186,-9.718884634406246,787.1454574192004
-631.8783682501161,-13.804816119673896,779.5944588620987
-636.7138625320574,-17.883171113479122,752.0631408279077
-625.9436198905846,-33.61841199594153,732.6538624300857
-628.9793150566198,-14.07402119990007,752.1661321654184
-645.1020481000139,-17.994728067178908,732.3142969311641
-652.4552217117977,-6.26060887255077,740.0141740553605
-655.7356487689477,-2.2253164944196033,755.649482748951
-670.9855047340326,-17.512810184925538,763.3218275353969
-667.8406999332087,-21.582293647677854,743.7595917056285
-664.0697893776163,-13.908827173397645,739.8663152044787
-653.0272825072783,-10.266094945776592,724.3207415376302
-648.7108237777427,-2.4558437386875234,736.1331341487665
-652.7815308999507,-14.066475299924035,732.185812688329
-660.4620334161003,-10.13822253266916,732.0583481617067
-655.48989716162,-6.025625468432136,763.5155736158628
-648.3019175763385,-2.3532296961755543,747.9128958410876
-659.6982659725799,-17.670458311451924,755.6423447354601
-672.0490687441686,-33.227044913400604,735.8873825414388
-652.1544054289692,-21.63287157184156,751.8439018421175
-633.2967935023684,-21.884231618340618,740.3537395542821
-652.0177634564302,-21.5987110787068,755.7708289782954
-660.7618299827159,-14.07534683097694,724.2177502001194
-653.0548148450287,-14.13489825781485,724.3329781321859
-656.090510011064,-13.899853670723438,747.8343776926882
-652.7815308999507,-14.066475299924035,732.185812688329
-668.2230935130754,-17.816175758286473,731.9675934187516
-664.2329439716927,-17.81168900694937,735.9516246628565
-676.0667506233016,-17.79088679620462,727.9254383505072
-656.1445549703519,-2.3279203397694426,743.86972105663
-655.8182457821989,5.477935890441691,751.6980824236616
-656.4718838747177,9.175641019104384,732.0522298644288
-655.9263357007745,-9.996961245685327,751.7490682343105
-648.8739783718191,-6.3587667552120255,732.2184436071442
-644.5024549667828,-10.120438681914825,747.9954928543387
-660.107172173984,-17.773041762477504,743.8625830431392
-668.0864515405364,-17.781913293530412,735.8945205549296
-652.6183763058742,-10.163531889075271,736.1005032299512
-637.3409880030389,8.992652944685494,728.4149021327365
-648.9841077228208,16.785140695344488,724.2901500512407
-652.2370024422204,5.379767810618305,743.9023519754453
-659.4525143652522,-2.1613496963794976,759.5182860609893
-640.5949024386514,-2.4127403343649463,748.028123773154
-647.8379466994336,-13.822559181779713,763.6562944532537
-647.9195239964719,-6.1193475855669375,759.7048941279643
-636.2774239929029,5.39756185853477,759.8405163842904
-644.0660164276283,-6.149102904661633,759.7630179521041
-652.072828131931,-10.026716564780022,751.8061723422372
-621.3273645944334,-2.561527127000556,748.3167034614268
-635.7869404944605,-2.203076483814555,775.5716784019008
-643.5480005914354,9.428408273977354,771.4917938337762
-643.9028618335518,-2.2461696909750017,763.6766887775133
-656.0364650517762,13.146997190681834,743.8197549621941
-652.4001570362968,1.4768447940938039,739.988681150036
-632.6146033558862,-2.4038484089877787,755.9972059775765
-652.1829574829326,13.117221477262879,743.8778787863339
-652.7009733191254,16.849076901898204,728.158953363279
-663.6333508384618,9.371966981589026,747.6426710446484
-663.3060219340958,-2.131594377284802,759.4611819530626
-644.0119714683404,1.5883507619829405,759.7375250467795
-640.1859962372473,-2.3101364890151075,759.8078854654751
-648.0836983067613,9.287146986993521,751.8010737611723
-640.240041196535,-10.04757995849755,759.8333783707994
-643.9844391305901,5.457072496724162,759.7242687360109
-644.0395038060909,-2.2803811699204117,759.7497616413352
-660.1887494710223,-10.0698199691026,739.9111827178497
-656.0629776733135,-10.031162527468608,747.8221410981325
-659.8889529044068,-6.132685473632689,747.7517806794369
-664.5337602545212,-2.4394263076585787,724.1218968760995
-660.6251880101768,-14.041186337842182,728.1436576200845
-664.9701987936759,-6.410762084911769,712.3543717783342
-664.4786955790204,5.298017161823865,724.096403970775
-652.6459086436246,-14.032212835167975,736.1127398245069
-652.9191925887026,5.208751204539777,724.2697557269813
-663.7149281355,-2.234208419796771,747.6814202607416
-644.0395038060909,-2.2803811699204117,759.7497616413352
-655.2451652705054,9.48347294947816,767.391514941392
-640.3766831690741,-10.081781240280831,755.9064512346215
-648.0286336312605,-2.2848271326089953,755.7657303972305
-652.0738478481439,9.282690827142808,747.8170425170676
-632.6972003691374,5.299393778711385,752.0447859360742
-632.3974038025218,9.236528274181296,759.8853838976613
-644.2026584001674,13.126093008315788,751.8459412745434
-643.6030652669363,21.00034160493135,767.5271371977179
-640.2135285749977,13.130579759652889,755.8309922348611
-643.6030652669363,21.00034160493135,767.5271371977179
-648.2743852385881,1.5154920385656674,747.8996395303188
-628.9528024350824,9.104158912574631,748.1637460294801
-644.3393003727064,13.091932515181027,747.9200338545784
-656.1455746865648,16.98153803796404,739.8805912314604
-644.1210811031291,24.73229900118797,751.8082117746632
-644.2852554134184,20.829335196014952,747.894540949254
-655.7907134444486,9.346657625182912,751.6858458291059
-648.329449914089,13.087445763843926,743.9349828942607
-647.7288370646451,1.652307362860916,763.6063283588178
-651.609876971239,-2.18665905278561,763.5604411292338
-649.1197299791469,-2.5584577811994924,724.3533724564455
-640.6224347764017,13.027894337006014,744.0512305425401
-656.1996196458526,9.244043582670944,739.9060841367849
-648.7108237777427,-2.4558437386875234,736.1331341487665
-647.5106177950678,-6.016733543054968,771.4846558202853
-648.9015107095696,-10.227447701304728,732.2316999179129
-649.0106203443582,-6.392978234157435,728.2925361871792
-649.0381526821086,-10.261710166060787,728.3047727817349
-652.94570521024,-17.969439105097052,728.2721418629196
-670.3859116008016,-9.638510602499325,779.0030234585715
-675.1122962479543,1.7579907511739483,751.4217393299446
-668.6054870929421,5.259369917352002,716.1854455904922
-660.2173015249857,24.6802934743261,731.9441399458532
-659.7257983103302,-2.2297624571081873,751.6654515048463
-639.9402446299196,-6.11044546302764,767.6729566161738
-632.8603549632138,1.3964707621868837,748.1311151106648
-640.3766831690741,-10.081781240280831,755.9064512346215
-651.9096735378545,13.1856444351537,751.7307133424769
-652.2645347799709,1.5110460758770836,743.915608286214
-640.6499671141522,9.15922358807544,744.0634671370959
-659.9164852421571,-10.00140720837391,747.7640172739927
-660.1887494710223,-10.0698199691026,739.9111827178497
-648.3559625356264,9.21873422626483,743.9482392050293
-652.346112077009,9.214288263576249,739.9631882447117
-632.806310003926,28.443352215078548,744.1164923801707
-663.7434801894634,32.5158948264698,739.714377488745
-651.4191900394121,24.894433879051462,763.4717258187047
-651.883160916317,17.05434577557066,751.7174570317081
-648.5741818052037,16.88772414637007,736.0699117435619
-644.448410007495,-2.3829850152702505,747.9699999490142
-664.2339636879058,1.4976979906492025,731.9624948376867
-660.898471955255,5.19984908200048,716.3016932387717
-659.8614205666563,-2.2639637388914666,747.7385243686683
-652.2645347799709,1.5110460758770836,743.915608286214
-675.4396251523202,-6.047865479037185,743.593377962913
-648.1652756037995,-2.3190284143922746,751.8388032610526
-644.0119714683404,1.5883507619829405,759.7375250467795
-651.937205875605,-9.992515282996743,755.7330994784152
-652.4001570362968,1.4768447940938039,739.988681150036
-632.806310003926,9.133914231669328,748.1056222053403
-648.2743852385881,1.5154920385656674,747.8996395303188
-664.0157444183285,13.138125659628928,735.8506727577717
-671.3138533546114,13.300158565871119,747.515206518026
-655.9273554169876,28.621904523970983,743.7687691515451
-632.9704843142155,24.54038840990553,740.2018018385484
-640.1309315617465,5.427317177629466,759.7823925601506
-628.789647841006,13.007092126261263,752.0774168548893
-624.0907955316036,17.051286626931727,775.6818077529025
-635.95111480475,13.203387497259516,767.6678580351089
-635.8144728322109,13.23764996201557,771.594785171287
-651.4191900394121,24.894433879051462,763.4717258187047
-647.6197274298563,17.127153513177284,763.5553425481689
-648.6017141429542,-6.290364191645466,740.0722978795002
-644.2842356972055,1.5199380012542512,751.8836707744235
-640.6764797356897,5.290501853334217,744.0767234478645
-636.4415983031923,1.494628644848139,755.9258258426681
-647.5381501328181,28.733359506049467,763.5176130482887
-636.4415983031923,20.8040462339331,751.9366960174984
-643.6856622801876,28.703583792630514,763.5757368724285
-648.056165969011,13.155868721734741,751.7888371666166
-648.4375398326647,-2.3874309779588345,743.9859687049095
-663.4701962443853,-6.0345173938093035,755.5464914114402
-655.6816038096598,5.51213717222497,755.6250095598396
-652.4817343333351,-10.129330607291992,740.0264106499162
-651.937205875605,9.316902306088217,751.7429499370327
-648.1112306445117,24.727812249850867,747.8241805305584
-636.8239918830591,24.57016412332448,740.1446977306216
-643.9303941713022,13.194515966206607,759.6997955468994
-655.7356487689477,-2.2253164944196033,755.649482748951
-655.2992102297931,1.7460192828335879,767.4170078467163
-648.0296533474735,17.024570062151703,751.7755808558479
-656.0629776733135,9.278244864454223,743.8319915567498
-651.746518943778,17.088506268705423,755.6443841678862
-640.5949024386514,16.89669764904427,744.0379742317714
-652.4001570362968,1.4768447940938039,739.988681150036
-682.7642467101407,-9.754462533077046,755.2701483177233
-640.894699005267,12.959573350736493,736.1973762701841
-656.1996196458526,9.244043582670944,739.9060841367849
-645.0214905191885,12.920926106264627,728.2874376061143
-675.2214058827429,5.592511204131891,747.4825755992108
-655.7091361474103,20.95282282940658,751.6470966130126
-643.8763492120144,40.241366827611884,755.6841531001924
-648.5201368459159,5.31581120974033,740.033548663407
-660.0806595524466,5.405077167024418,739.8601969072008
-656.0629776733135,9.278244864454223,743.8319915567498
-659.370937068214,9.444815507844167,759.4805565611091
-645.3212870858041,8.983750822146197,720.446839644527
-652.1554251451822,-2.3234743770808586,747.8547720169478
-647.8114340778961,9.35554955056008,759.6539083173153
-640.0768866024586,13.16474025278765,759.7568996548262
-640.3491508313238,13.096317294896831,751.9040650986832
-648.4926045081654,9.184532944481552,740.0213120688513
-655.6540714719094,-9.928558682118767,759.6019027904536
-663.6608831762121,-13.806141750750768,751.6460768967997
-648.7373363992801,-6.324565473428746,736.1453707433222
-672.4855072833232,1.4204035017054755,716.1405780771213
-676.229905217378,-21.69374862975634,724.0117675250979
-644.9664258436877,1.3489213951757226,732.2510745259596
-664.3695859442319,1.4634967088659228,728.0355677015087
-671.8583818123417,-6.1460233616984405,735.7986672309097
-664.4246506197327,-6.273946760616521,728.0610606068333
-667.0514395843638,13.373068275099042,759.3520723182739
-663.6884155139626,1.6345133149444513,747.6681639499728
-648.5466494674533,1.447079277836978,740.0468049741759
-656.6360581850072,5.2727078054177525,728.1385590390196
-664.3971182819822,16.904141577399013,724.0586744708949
-660.43450107835,-6.269500797927937,732.045091850938
-640.9222313430173,9.09081082734675,736.2106325809528
-647.8654790371841,20.927533867324726,755.6892516812571
-648.5201368459159,5.31581120974033,740.033548663407
-652.1829574829326,13.117221477262879,743.8778787863339
-644.8297838711487,1.3831226769590026,736.1780016621375
-656.0089327140258,-2.2937190579861624,747.796648192808
-663.1153350022689,5.640060571143052,763.3615964677031
-656.3352419021787,-10.099575288197297,739.9693065419895
-637.0411914364233,-6.379630148929554,740.2456496357065
-639.6669606848415,-6.04204289946108,775.5268108885298
-648.5201368459159,5.31581120974033,740.033548663407
-636.4956432624801,13.066643553099174,751.9621889228229
-660.3253914435613,9.20539633819908,731.995125756502
-648.138762982262,20.859110909433905,747.8364171251142
-648.2743852385881,1.5154920385656674,747.8996395303188
-648.6282267644915,-10.159085926386688,740.0845344740559
-648.19280794155,-6.187750149133497,751.8520595718212
-659.8073756073686,-13.835917464169723,751.7031810047265
-656.0354453355632,-6.162440792727384,747.8088847873638
-644.8848485466496,12.955086599399388,732.2133450260793
-659.2353148118879,9.479026986789577,763.4074836972871
-652.0463155103935,13.15138197039764,747.8037862062989
-652.5367990088359,1.4426333151483943,736.062773730071
-652.4001570362968,1.4768447940938039,739.988681150036
-636.686330194307,5.294947816022801,748.0607546919692
-647.9470563342222,9.3213482687768,755.7280008973503
-636.1418017365768,24.741170532240883,759.7772939790857
-632.7247327068877,20.74011002737938,748.0678927054602
-644.3393003727064,13.091932515181027,747.9200338545784
-641.4402471792101,12.822727434954853,720.4917071578981
-647.9195239964719,-6.1193475855669375,759.7048941279643
-644.7482065741106,-6.320119510740161,740.129401987427
-656.2536646051404,1.5066001131884998,739.9305573258963
-667.6510327175947,5.498789086997089,743.6718961113123
-648.7383561154932,12.984862312818345,732.1552212019396
-656.4178389154299,16.91311508007322,732.0277566753174
-660.3529237813118,5.336674603457858,732.0073623510577
-653.7635176130483,-18.174606007148213,704.7126184782776
-648.2743852385881,1.5154920385656674,747.8996395303188
-648.465072170415,-6.256162909862185,743.9982052994652
-655.48989716162,-6.025625468432136,763.5155736158628
-640.8406540459791,1.3875686396475864,740.1620329062423
-651.9912508348926,1.579448639443643,751.768442842357
-655.7356487689477,-2.2253164944196033,755.649482748951
-660.5711430508891,13.005664523563093,724.1290348895903
-660.2713464842735,-2.3665777814034357,735.9597823925602
-656.227151983603,5.375321847929722,739.9183207313406
-667.3502164347663,-9.87349400661796,755.5016238980693
-659.5075790407531,9.410614226060888,755.553629424931
-644.9664258436877,1.3489213951757226,732.2510745259596
-648.2203402793003,9.252935508048111,747.8741466249943
-659.9440175799076,5.4392784488076975,743.7871240433789
-651.9096735378545,13.1856444351537,751.7307133424769
-640.4317478445749,20.799559482595996,747.9526647733936
-651.9647382133553,5.448180571346995,751.7562062478013
-664.0432767560789,9.269352939077056,735.8639290685403
-659.8614205666563,-2.2639637388914666,747.7385243686683
-651.7740512815285,13.21980492828846,755.6566207624419
-643.7937521987632,13.228676459341369,763.6257029668644
-659.2618274334254,5.610305252048356,763.4197202918429
-647.8654790371841,1.6181060810776362,759.6794012226399
-648.465072170415,-6.256162909862185,743.9982052994652
-659.5616240000409,1.6731707565784446,755.5791223302556
-652.1278928074319,1.5452473576603634,747.841515706179
-651.8556285785667,1.6136601183890527,755.695369978535
-652.5643313465863,-2.4260884195928276,736.0750103246268
-656.5269485502185,1.4381873524598106,732.0777227697532
-656.1180423488144,1.5408013949717796,743.8574844620742
-655.8722907414867,-2.259517776202883,751.723575328986
-656.0089327140258,-2.2937190579861624,747.796648192808
-628.8987574757946,16.841632973543465,748.1382531241557
-651.6914542682772,5.516583134913554,759.6090408039444
-639.9953093054204,5.461518459412746,763.7093196963285
-640.6764797356897,5.290501853334217,744.0767234478645
-640.5133251416132,9.19342486985872,747.9903942732739
-651.9912508348926,1.579448639443643,751.768442842357
-663.388618947347,5.571647810414362,755.5087619115601
-649.3654815864745,1.24186138997517,716.4872815895337
-639.9402446299196,13.199002717543708,763.6838267910042
-660.2162818087727,5.370875885241138,735.9342894872358
-648.7108237777427,-2.4558437386875234,736.1331341487665
-645.048003140726,-10.257223414723683,732.2888040258397
-636.2498916551525,-10.043133995808967,763.8174096149042
-640.5949024386514,-2.4127403343649463,748.028123773154
-655.8182457821989,5.477935890441691,751.6980824236616
-656.8818097923349,9.073026976592415,720.2734878883207
-652.3736444147594,5.345566528835025,739.9764445554803
-671.286321016861,-2.1404863026619694,751.49209974864
-644.6390969393218,9.154777625386856,740.079435892991
-656.1180423488144,1.5408013949717796,743.8574844620742
-644.6125843177845,13.023509557290208,740.0661795822224
-664.2880086471935,-6.239745478833242,731.9879877430112
-663.4967088659228,-9.903239128550526,755.559747722209
-659.4800467030027,-6.03007143112072,759.5315423717581
-652.5908439681237,-6.29481015433405,736.0872469191825
-667.2961714754784,-2.136040339973386,755.4761309927449
-660.0531272146962,-10.03560849015719,743.8381098540277
-664.0973217153667,1.531909469594612,735.8884022576517
-676.0392182855512,5.387283119107953,723.9230522145688
-676.0392182855512,5.387283119107953,723.9230522145688
-664.5337602545212,16.86998108426425,720.1317473347168
-648.6832914399923,1.4128779960536983,736.1198778379978
-644.4208776697445,1.4857367194709714,747.9577633544585
-628.9803347728327,24.54487516124263,744.1868527988662
-641.0038086400556,16.794012226397395,732.2582125394504
-632.4514487618097,1.4990746075367227,759.9108768029859
-632.6421356936365,13.036867839680218,752.0192930307496
-612.665895081399,16.9277989935401,771.9292520891437
-638.8501679982462,32.782040758057036,791.1060351904066
-634.6428189034992,63.73624020435114,794.9891145294265
-634.5612416064611,56.03299801665197,798.941534570929
-635.4330989685571,48.09032646214559,775.4075040916114
-658.3624377335789,17.42164755548531,786.9415141766048
-655.4633845400826,17.152544446880434,759.5131874799243
-636.8229721668461,5.260746534239521,744.1338275557913
-652.1829574829326,13.117221477262879,743.8778787863339
-667.1605492191524,36.516955331331296,751.4237787623705
-659.9175049583702,28.61741777263388,739.7847379074404
-663.9341671212902,44.05367786145116,731.8227937165088
-671.0956340850342,44.24997323244941,747.4132348967283
-656.5004359286811,43.92570347672243,724.0862068086452
-640.4868125200758,32.371604982333416,743.9880081373354
-644.7482065741106,12.989247092534148,736.1402721622574
-625.4266237706047,20.577975149515893,736.4033589452057
-643.7672395772257,17.09747977137963,763.6134663723086
-636.1142693988264,28.609871872657845,759.764037668317
-643.385865713572,51.95015627150965,767.4261852926331
-654.290710895158,29.0323402996946,790.8878159208293
-651.6374093089894,13.254067393044519,759.5835478986199
-632.4239164240593,5.367806539440075,759.8976204922171
-643.7386875232623,1.6567533255494997,767.5903596029226
-637.150301071212,16.764338484599737,732.31633636359
-636.2784437091159,44.01635624805617,751.8602173015252
-632.3158265054835,59.461487867926365,751.8683750312289
-644.0945684815916,47.91044852217628,747.8058256387249
-644.3393003727064,32.401278724131075,743.9298843131958
-643.7672395772257,17.09747977137963,763.6134663723086
-647.7023244431076,24.830395700876448,759.6039422228795
-636.8780368423469,16.83265947086926,740.1691709197331
-643.8763492120144,40.241366827611884,755.6841531001924
-633.3528778940822,66.92530068881831,720.4305241851193
-648.3855343058027,82.5876318620528,728.0019170664805
-632.0710946143689,74.97065766597156,755.744316356758
-643.9038815497648,55.68211366776627,751.7072598695784
-628.2716320048131,47.89403109114734,759.8170629113919
-654.5089301647353,36.7013200226377,783.0094884593618
-624.4456567737199,43.99555403731142,759.8874233300874
-619.8018691398185,59.61169206609801,779.5271575920422
-623.382092763584,59.70989073740779,787.3228880402585
-619.9109787746071,82.75557912233027,771.5978443199259
-623.382092763584,59.70989073740779,787.3228880402585
-628.4347865988896,43.99106728597432,755.9023723697695
-620.5105719078382,55.57198431676465,759.9067979381339
-635.7063829136351,48.02190350425477,767.5546695354684
-632.2617815461958,67.1989925203816,751.8428821259045
-631.7988303855038,75.03897865224108,763.597150912901
-632.5615781128113,63.26186822207381,744.0022841643172
-643.7407269556884,78.89442368188934,751.6307811536051
-652.2930868339342,55.570556714066484,731.9584159728349
-624.0642829100663,78.84823053744144,763.7001422504119
-628.1625223700245,63.368938424436486,759.7660771007429
-632.206716870695,55.62704899226546,755.8075387619626
-620.2097556250096,40.199660434501084,771.7375454411039
-620.6461941641642,36.22827367143724,759.9700203433385
-631.9609652633673,32.51732242916797,767.662759454044
-620.7287911774155,63.240964039707755,752.0284704766665
-627.727103547083,67.34022321587904,771.5336021985082
-639.2325615781128,55.85750485639847,775.3238873621472
-635.7339152513856,63.46265034440916,763.5767565886415
-635.4606313063075,63.530971330678675,771.4306108609975
-624.8005180158362,51.63037326711977,748.0821687324418
-643.6856622801876,48.01303197320186,759.5855873310459
-631.743765710003,63.46703512412497,767.5618075489592
-635.5156959818083,75.1030168304161,767.4659542249393
-627.6455262500447,78.94642920875121,771.4948529824151
-623.191405831757,67.48145391137648,791.2233025548991
-627.6995712093326,71.20892455629598,771.5203458877395
-608.2413464332877,78.8318131064125,775.7113795230788
-619.6376948295291,63.51465587127104,783.4408284174515
-619.9099590583942,44.13678473280886,779.5781434026911
-608.3494363518633,44.04755956417329,779.7514951588973
-620.5095521916252,36.2625361361933,763.8969474795166
-616.5754870419563,47.83896641564653,763.9163220875631
-624.1183278693541,51.80137967603616,767.7147649809059
-628.2716320048131,47.89403109114734,759.8170629113919
-624.4997017330078,36.2580493848562,759.9129162354118
-608.5676556214406,32.40719307816635,775.8622975225995
-644.2852554134184,40.138783376586304,743.9043914078712
-631.6611686967518,36.45444672747575,775.5033574156313
-631.5795913997135,28.751204539776584,779.4547577409207
-606.5965441817543,35.76725997154992,720.9363034267564
-638.3321521620534,48.35953154237177,802.8358307882917
-621.4374939454351,39.89180810980305,736.3982603641407
-620.3739299352991,36.29669662932806,767.8238746156945
-597.9075423309694,20.50649304298614,752.5148751102569
-621.763803133588,12.776534290506952,732.5600485384919
-649.0921976413965,1.3102639535417293,724.3401161456767
-648.5466494674533,1.447079277836978,740.0468049741759
-649.2563719516859,-2.592659062982772,720.4264453202675
-656.4718838747177,9.175641019104384,732.0522298644288
-648.4385595488776,16.921986611126126,739.9958191635269
-655.8457781199493,40.22800854522187,743.731039651665
-651.5282996742008,28.728872754712366,759.5325620879711
-651.1193934727966,48.140904386309295,767.3231939551224
-649.9202072063346,63.889503551161724,798.6845660852586
-630.8984209694443,48.23155715764304,795.0982241642151
-634.8069932137886,79.14272457974945,787.0852941626347
-636.224398749828,71.06320710946144,747.8455945710309
-663.3080613665218,94.41552415962639,739.5114539623623
-598.9109430845397,162.14915389047232,583.2633977963933
-568.6284307077341,161.77389832409642,568.0196601285862
-577.3235508557968,85.34372084248955,666.2621792355188
-587.393248458954,-5.00948845936176,505.50697740818737
-662.5850825715205,-176.73313516848265,705.1154063824039
-746.1691811168953,-194.0917642620059,853.0578739936677
-812.1764312991696,-239.05819010569363,958.1855169706272
-625.1890298929809,-112.66028664222748,548.4747594744383
-540.5311701753402,-66.00500680660572,647.7013047268946
-612.6424416085005,194.58122804423533,736.0087287707833
-616.6172954066884,357.77661076922294,809.9656865494335
-551.1086864525604,357.27083152758587,810.948692978744
-541.8710772791933,226.29032340299696,882.1728113066135
-588.1733313618821,88.60069442674104,1019.3052673440982
-708.0736031162528,13.170246720337731,1131.5790815416071
-713.0804097219745,29.354570622995624,1206.0183650889958
-744.8170374184866,41.94684219381747,1287.9117741532534
-704.8390632886868,130.8346887061331,1311.7629363748072
-626.0731238496328,230.07856913420997,1230.1856393365729
-513.3516542346265,258.3614180173658,1031.6264983455105
-433.72099544696715,236.1101905339744,777.7946597461927
-453.06093314230657,200.4874243498035,671.660556867024
-524.5308030775036,159.00944767071326,729.5987926560039
-509.27992739620566,135.67834071777824,729.9057272361104
-468.28121733721514,73.21225902831243,703.258503158571
-407.68050251614983,128.53114978101596,884.5120402991847
-344.57332524358475,212.38445340661698,798.8334446523534
-398.7661433822967,197.29265345454363,794.1478486537197
-524.559355131467,213.06970270173815,717.6426200588378
-587.4319976750471,131.1436627186654,587.4646285938624
-606.2600378314715,38.716891089209874,618.8912625616292
-644.8297838711487,1.3831226769590026,736.1780016621375
-691.7530451275411,1.5691800971789553,715.8509786726355
-714.7099162303132,-13.658792757975458,723.408095527015
-669.6404990491147,-25.89569322857449,692.7278938271479
-549.1477721750038,4.3369142367679085,717.9781066929074
-541.9149250763513,78.5312007668266,800.2528896208187
-571.215450740059,102.32342339127021,838.9796719572944
-506.54402879678594,92.88768335772156,706.5440287967859
-447.20572264738723,72.52068749267079,644.7074179255914
-423.8939903024989,80.11380032936835,648.9555556688575
-494.9111062391337,147.87924520605915,808.5727542025055
-611.1505967889137,141.88535330617492,901.04265982777
-629.0976021373252,33.23550855796832,850.1200715840783
-546.5566732778268,-14.322628012624088,796.5727338081813
-491.51851039855615,4.8438355605634955,824.8045968806882
-466.299908735399,128.77180280727876,860.0857581335115
-505.66299398877294,210.95889014087382,929.8618794389523
-543.3527249366502,234.63975975486025,948.8408375948974
-570.1253741083857,141.21641947046137,862.4127505315272
-569.6797581233143,82.40296125588249,776.2763023050685
-601.6886500486916,94.92680986881352,850.3229951104609
-533.5726267379789,123.97709717385654,698.1843952827928
-440.58266584409563,144.56924637873283,487.5783269516094
-510.3526688522585,182.74844110883942,800.374235850163
-610.9884619110502,223.0262118052546,888.9977719200748
-620.0843305308133,141.63756226642127,865.5881468187404
-523.5671712562394,115.77449995666207,655.1911203112174
-511.10827856607517,204.73454237685658,662.9266875028679
-599.2851789347025,314.66198956830317,763.2759403058129
-686.9328465887944,300.1453095603494,793.4085543993108
-678.7802154660359,260.58134021301873,703.3982042797489
-645.2621435454514,204.95887994371168,570.6505279580693
-704.6188045866836,197.29163373833066,526.6161227330434
-720.1429642130596,278.4834780480592,506.4869246888592
-650.0272774086973,391.12744923087905,617.0465959323521
-605.549295631026,461.83559115498167,774.4591680135419
-593.8786435734935,399.9836845405924,790.5411124084168
-552.3078727190224,360.83168054330486,775.5971713072254
-547.4366883696268,344.6130941758909,697.2330000560844
-617.4544824175432,387.4656483100753,668.566737876849
-641.5646525571934,349.7738779297722,758.5995217530963
-614.2433960628758,288.85807079889673,892.6514151111747
-526.2949121259554,249.3838364783081,882.3278081709861
-474.802302519209,344.8986147155247,792.5101844156771
-533.8336740885013,460.89337337419005,732.3652827418131
-551.537986978224,464.3002452417493,665.3709472653761
-566.2606496611993,382.49657120423393,590.8582441506529
-622.0972503352318,313.9216755976812,660.896432522829
-662.1139736811247,341.8771955764711,722.9961301769717
-646.755008081251,372.6389745733763,715.27381929609
-595.842616999689,411.07615750536627,731.6045744469316
-566.2157821478282,472.3274512703115,684.7465750281697
-569.6879158530182,487.90055727491045,692.491319665737
-634.8151509434925,484.64052454202,703.3003115233032
-651.9188509837712,437.99258666313165,663.9555811617628
-557.545135188877,409.72299409074463,614.4442801568324
-540.1875258115667,467.0239072466133,547.7925693279561
-596.5452014704308,498.72790402431013,582.1631240025902
-580.2950039004146,526.8486180296024,711.8241193475857
-541.7058832526908,534.2884675194894,712.3768055350197
-577.2868410721297,542.0536064813164,684.3458265564694
-704.1232225071764,492.91348217790994,702.2347080807411
-595.0451989211404,479.7948330979489,629.3453931770789
-410.9252395058456,512.9111368306201,600.5944945521662
-347.66306536890784,605.5238027257014,628.7019522466899
-460.35088434888576,730.7286382199835,685.4603763772543
-521.4074123171522,758.3884404970097,696.2265401538752
-516.8054330479828,606.9361096806759,637.9375219876309
-509.86014592139014,517.860839328415,634.4174616204311
-447.3056548362591,529.1970244680906,658.8641381103639
-481.9056456588132,579.6892924699057,650.3260542590997
-469.88217179159045,606.7495016137009,658.2635252609199
-555.3139961148813,630.4109966196409,633.3569567589341
-607.7804347050217,583.8609514971984,573.8585551640979
-585.0968475473277,618.3293989282784,554.4584542121928
-577.2797030586388,575.8164102930155,566.4931449577583
-483.4321608296412,517.5161752484285,619.1156001284843
-405.5727491039244,551.8765327609327,635.8644389266467
-424.213161477161,602.3871556545814,643.2645194842277
-556.1399662473934,615.7525760580832,723.6599654316204
-557.77559105301,615.3426501404659,676.5409186623364
-446.1788684209185,509.1728571938431,584.3799870496042
-255.84985698480116,445.3070110588224,532.5019247143521
-342.9071089515788,520.7578530894853,672.2295585138656
-550.887408034344,634.3868701340418,649.1074933845912
-547.4703390046551,611.0761575053664,641.3882416523481
-546.5699295885955,622.8885501165026,664.91003553711
-423.06802016998677,571.7793538058359,682.6306638862405
-211.92048252971202,670.3532806819863,642.2906905008338
-381.3096215323276,733.4941085895797,631.6907404669281
-677.5443194159067,752.3496810837545,748.8530741894532
-670.6265646270643,678.7159733446182,741.3561205916394
-453.0119867640836,478.55689761539367,615.7780689634076
-441.4331091657192,506.5022204320538,721.8224368158343
-541.2725038621752,654.1163394227387,700.2054728169152
-658.3053336256521,825.5704037566347,733.195331739177
-556.2786476523585,731.5750026767552,695.7952001957856
-392.0686472954577,589.8976714780277,573.1447538150134
-445.8698944083862,508.25409288594994,482.34820249524563
-497.9386436754652,582.5190049609195,520.5641070090195
-362.86091580713094,713.8299011385133,612.4099463119416
-302.13171674323036,678.3641712511409,593.8164408845018
-429.76653597303874,637.7437759071651,698.0059449455218
-662.418868828805,608.271937919677,659.2995569333056
-743.6056145574687,584.6624484405991,544.3489876767296
-625.8661214583982,591.0326156230722,495.07120168457124
-505.0664600041809,697.5837824333489,402.3300515466546
-467.0963070977348,669.1153451994311,281.3315454309066
-491.49505692565765,506.773464944706,277.5891869292776
-449.45827576185553,359.6049619390924,298.3383724309525
-304.26292362835426,382.33239689394446,371.079828483733
-363.0332478471242,734.0926820065977,714.3795281773083
-843.2369871464772,960.3044872611953,926.2021179505746
-1145.5186021730156,849.205386141037,784.6869216297106
-918.184089367929,689.1058618386504,820.0292658553126
-431.7723177639663,443.1492915521611,569.1199339223895
-281.86179786165513,479.51747028801896,441.73086629990877
-492.0864923291848,609.0275476334937,461.6928308851647
-695.0039004145148,771.2654168344951,685.7336603223324
-642.8984413637686,733.7602545211669,863.248917826169
-615.6781367745358,729.7517500879505,871.5188163134201
-785.7392687615038,652.6989338866994,759.3418751561442
-931.7126643655072,435.6849688731627,593.0536931571944
-908.07258340004,373.8463185695422,621.0887510005966
-781.8357950982243,376.49350185843286,595.4989726359155
-623.9735281671111,466.9300933550193,464.12077518826516
-553.1685132027758,555.5801420464686,488.43080970565893
-661.265569791927,611.4269398826308,580.8130197366073
-874.5973395604004,666.7801950717115,526.4111597742349
-1004.8497703089232,563.7133985611805,567.9788714800671
-875.2397607745767,472.5283353642682,436.79034124803076
-753.9730692948153,413.13496453936875,391.71174662091545
-785.9014036393672,475.8832017049656,457.7404108436623
-809.3518173892206,584.1128214018039,425.6275078645614
-798.0360265738046,568.5142224918806,421.92491829523846
-800.9350797673009,568.7834275721068,449.3532449919188
-808.2484844467785,386.4357349349676,387.064899838375
-811.0363885730602,305.6324025023836,434.3909489988937
-750.2256122121214,281.7730825511261,415.758694355361
-768.7497769370784,323.5936838777768,317.22453641151674
-962.6070064700995,511.15110664702013,352.9349981900038
-1096.2255204376622,574.2980528518914,374.2674613655021
-1066.490595667226,520.7140052923272,465.15986600928966
-934.5209628160484,404.0849831491896,518.5501674883881
-771.8945817379024,346.97169777650885,332.79764241611565
-691.4073613313416,323.0664905956673,326.23474886938965
-734.2334028439886,396.66042940249736,297.87236212162156
-915.2646418501732,390.3555240576548,299.1062187393249
-956.2347998552003,398.76206451744486,337.7106351302433
-836.68734991052,423.8990888835637,225.60303467544986
-782.1315127999878,465.1190773607705,124.24120367301782
-876.5317412164196,450.9011742032193,181.74402063905617
-938.468284276486,475.4753152197744,278.8485364523054
-964.9146242600686,389.8579025457216,200.24881075596664
-969.5563724615441,277.69421769921433,200.55778476849895
-826.9021531307839,138.58045305991345,344.4499395818144
-575.8286468875713,202.44833862736004,351.9203805580907
-539.5797749486319,470.042267237028,453.60036301897185
-680.251665961363,587.4778849046311,482.4940219137015
-746.875844452489,467.9854996354515,474.0507716702443
-707.9104485221764,226.36476268654434,314.5396236227458
-758.2140690245905,171.63659353601895,208.00579198808973
-904.0803944262312,143.01010028908956,339.3544176655637
-864.2553777283783,126.59164954393195,269.36313623918466
-796.7583221589433,234.71827790325955,305.3315862195551
-801.4194449684653,267.43281344801744,497.4573376229396
-791.4405021082633,236.0520667098347,458.4664487873025
-810.6437978310637,161.8442587427919,364.2385524108641
-895.6463216286908,175.0240907955316,464.96102134775896
-894.392070686728,198.51019461283929,496.2979202887837
-831.0095700366588,147.26639576205943,446.4001468391348
-735.974058419542,149.06211601311358,298.68201679472605
-812.799477905299,223.09453279152413,289.4321710268033
-905.0735980176719,317.54268786996585,385.8463389638664
-875.9382663804665,386.3939265702355,323.25717752749415
-819.7631199237253,303.44409150933296,183.092085472613
-836.1020328042707,229.95416375622668,171.32150122620877
-837.6652577587657,226.69719017197517,238.02725701437294
-808.7563031208416,308.0736031162528,277.432150632479
-829.8797244726793,373.4098800303876,210.17676780551975
-949.4985545522683,273.88149877888986,224.4191441521825
-907.2721061728522,211.72367730060725,233.11018543539333
-820.0700545038317,265.744163399326,293.1041691097368
-854.9525067173805,359.64371115518554,378.6063538517231
-956.2144055309408,368.8680640177839,455.55006041818564
-929.8945103577674,353.0481866896443,440.29918473688775
-898.8655657130621,259.1782107039611,354.7398958869747
-948.7684377437761,190.09957528819731,373.8483580019681
-934.8901000851463,190.59209821906566,440.77335277592255
-933.9172908179654,199.55642344735463,578.1189295019196
-926.4376723957724,231.3307806437469,676.2390826632949
-965.2541897589902,294.34516374093096,765.7110226224042
-982.0774678407001,262.21900445106127,620.3565947596784
-1037.612232515691,269.9627293724157,572.4034201281784
-1055.7427867824388,287.8342757210669,823.2474902234709
-941.1440196193399,312.72758791228404,679.6694080037527
-860.5395318482867,299.44068565718163,563.1821264142189
-935.6742618529264,362.3112887683358,605.0159840516385
-1070.5490661948782,310.28128871735,724.834678508971
-1006.8616703971285,258.1177058424641,572.9041007887505
-976.3527810210419,264.5276419572433,451.67615852508254
-1162.5478629297468,149.79121310539279,437.5000637322633
-1208.5370641350512,107.72893903626621,452.65202694090243
-1121.0658073858046,239.05615067326764,504.5392667220713
-1078.0745718466553,357.6032590130167,387.0445055141155
-1171.5213656039525,401.5530277923654,460.0643440930389
-1167.564866697598,344.6161533245298,585.9034430717932
-910.4984882707145,299.8618284531415,566.3575227014323
-745.8642859692148,360.1056425996645,525.4495673853967
-779.6383066592568,405.9469849540873,430.59760468661574
-931.6157913252742,514.8159667164629,357.31162017610507
-1136.3717477426035,524.9815176436399,448.4008300489974
-1095.0732411169975,480.9053040538819,315.7306521595041
-1126.500894800977,434.6509766332031,307.56680415840276
-1248.1632361713737,300.8468743148782,380.7640733583844
-1309.8050812458894,252.11973507772788,501.66774586632545
-1256.64727506335,236.05716529089958,482.8957901016148
-1131.7830247842028,262.5289981798066,523.9230522145688
-994.7749741247012,268.75028679518493,474.93384591068315
-836.8015581263735,278.11434077896126,363.4543906430841
-644.1210811031291,291.0800324269756,252.48275404954805
-518.6745728663714,297.391056069096,203.32019598945615
-681.7557473755055,322.49850866503857,271.4362193001688
-979.7158050914431,314.88428770273237,455.3807875268314
-1167.534275211209,387.1036490544682,577.9119271106852
-1083.1935472358045,421.0969087303004,559.4367087639511
-854.8505350960828,283.42706224857625,508.3774785477202
-473.65206263096985,-89.46235462670741,248.47119046769285
-316.56274058929404,-482.95391392575453,83.39279978382017
-500.33191762732434,-330.611370855491,84.05072068443353
-936.6735837416447,195.8752479185043,166.00470089174186
-1331.3414876639831,742.160676683679,334.85848888254407
-1400.753570281391,1038.1832735949588,493.7292551482923
-990.440160503332,724.5460988206983,394.96872020516696
-636.9065888963103,375.8592383739606,220.90826123089948
-424.8718981507447,149.2589212422183,162.05432028266534
-433.7352714739489,281.32950599848067,212.49662219004455
-753.7191599577839,404.4775738911861,289.7044352556684
-1001.53059403568,423.52485303340086,470.3859116008016
-1009.7076983475499,362.67226830773,580.3582263056193
-839.9371854812806,353.6936670524593,590.7807457184666
-596.1811627823978,447.6176879974304,492.0752754508421
-537.5372833740371,625.0299541637563,480.58103429815486
-564.524072950498,803.8790004741682,554.1413224699567
-721.0443933453321,859.5351113785034,583.0054095945098
-819.5296049109534,612.5781994870829,570.5893449852907
-642.9402497285006,393.7787113846217,487.63135219468427
-512.5134475075587,380.0359959823182,364.0437866141853
-558.2670942676654,507.9583751841863,351.15253424971837
-398.62236339626685,651.0398556081843,482.5735597783137
-179.43946199772606,680.1221620023148,466.13573442510955
-329.53149138594733,573.1977790580883,491.72041420872574
-457.34883981787874,519.9492181325937,482.1361015229462
-554.2035251589483,505.11642609861684,468.9623877674844
-545.8877394421133,488.7652766235157,378.8755589319493
-580.0614888876427,586.7039202989808,483.998103327844
-522.6677815563929,547.5366205584987,481.0653994993194
-464.01880356696734,473.926366292261,521.4380038035415
-458.20234228814127,482.1126480500477,576.4425160477839
-484.7516736092347,511.33057670050425,360.09238628889585
-712.961102925056,591.1060351904066,427.04797254923955
-765.866019486777,656.4402726721154,331.8442077569813
-662.9562592730445,507.60351394207004,220.07311365247057
-472.4804087022582,457.35291868273066,391.85450689073235
-239.50074694212603,456.0119918626646,446.3695553527454
-239.07144641646232,426.2209827005145,575.9887423330089
-250.6595014607435,441.75024090795534,571.8374776299756
-258.07691719394495,547.15014811378,669.486521900955
-306.74797203938147,647.3076942686852,578.1535998531609
-543.1161507752394,559.9710400595515,555.2844243447049
-611.6410802873561,569.4370656646256,687.6629633972866
-426.29440226784885,622.1706699025661,690.2612003079544
-393.8296971952706,430.12139721515507,444.1445345760276
-556.853767596478,347.1093594652608,536.1739227972856
-511.67626049670383,484.641544258233,811.1098081403946
-243.68872142882637,529.458071818613,865.9929741552927
-155.84424854562977,643.4368515242209,709.9396837860024
-491.015790305558,773.488398178787,680.9328363916322
-734.0845242768938,810.0452244140457,661.4695130345225
-675.5273207466363,672.6282675531401,490.12761748405427
-693.4733063788349,525.3598323586547,447.1843086069147
-755.6362264381823,485.22074306720447,662.2424579239598
-620.2138344898616,729.6100095343467,851.8291159570293
-341.53864979376243,766.3942324850996,883.351603248816
-408.02006801507144,834.3012139721516,1062.6564627064288
-632.856276098362,800.9350797673009,1028.006505789439
-753.8027766872481,700.0780082902929,893.0980508124591
-670.2247964391511,645.0561608704298,870.9875441664586
-680.5586005414694,645.4528304772782,906.1534774872154
-633.6587927579756,486.92366914287754,958.4108742536953
-369.3677249621431,328.9971600903469,837.3144753815014
-401.25731009060183,255.59186878291774,821.3854884185732
-687.9984500313564,400.2875599720598,742.0352515894828
-1013.5448904569859,487.2826092498458,666.2213905869997
-1010.6488964121287,602.870501139533,614.8552257906625
-926.690562016591,621.3202265809426,588.5781586984343
-985.8371615179497,630.1489295529054,658.3053336256521
-652.7346239541537,341.24089265957286,660.3447660516078
-234.85186072715967,259.2251176497581,509.8968557050573
-281.4416747819082,473.8916959410197,677.2333059709484
-525.574992479593,571.9710604538758,614.3759591705629
-819.5499992352129,681.0908924046439,444.770640330796
-1236.5384713434253,684.0990552329287,414.96637485787704
-1569.3432517730319,688.1758806524145,147.01860472230578
-1818.7454431431734,435.4922425089098,226.5513707535193
-1267.415478272397,156.11753249070787,188.65769656304653
-906.8723774173649,255.30124966221902,346.7830502771079
-759.0318814273988,247.79613833470148,502.0837900812204
-443.56329633463014,113.92269531389415,519.0345326895526
-192.06252899817983,225.23695655499074,640.1645821967747
-124.81020531985949,298.545374822187,676.2462206767857
-259.04564759627397,287.1643221691404,584.0077906318671
-459.49636216241026,175.70220207716196,491.11470277821684
-610.6723498850271,140.88501170124357,359.4550636557846
-831.5938674266953,206.9177547888423,195.01358771853796
-1158.0815059169033,249.32673237038134,323.4172729729317
-1373.7922736102546,127.43291541963873,348.0699321378861
-1216.6743995146153,-55.5139624642462,362.8150285775469
-826.6778155639287,-158.7300454283573,412.17541158295654
-514.4947561093749,-76.16515323785391,400.8749165107351
-517.9159040039158,120.93018512947849,372.6858815191732
-703.4308351985643,276.69693524292194,322.28640769273915
-858.7611467728532,276.5919044729852,174.7487674180276
-951.5512432889929,258.9161436372258,279.38388746411874
-849.8600439497689,181.2800497621512,340.03762752825895
-745.9275083744195,242.23970469018477,325.6902204116595
-667.9232969464599,406.0713903320707,542.160676683679
-444.83590216842657,578.0281747589646,497.82647489203765
-307.4485170776973,657.7210362356158,444.6707081419242
-295.9165464251299,692.3822100309485,436.87701712613386
-106.00357920390755,690.325442429372,804.719246633662
80.59724778594118,632.251584384066,532.9862899155166
-1100.4369483972612,547.3275787348382,813.8528447533052
-2356.543773867733,276.26151641998035,1412.113208893965
-2403.073424665916,171.2786731452637,1313.659608530946
-1316.841123115437,377.04720776207984,1050.5830227447702
-251.15508354025079,738.1205610478604,829.8552512835679
-91.99614547271496,1134.0977805876626,1117.405026181214
-632.6737468962389,1194.8932612054066,952.1120872061307
-1196.820524847935,1147.6498090581392,798.6101268017112
-949.2986901745246,983.7732559028824,861.7407575471747
-178.1719547449945,543.404730463512,753.113448527275
266.6037841668664,525.940050883839,920.7435770625036
325.8554144381619,840.6642431411339,1120.729301035522
193.55437381776653,930.1779914649754,1063.492630001071
93.55325212993226,1015.9605981655307,1049.9406015305942
-92.96620150612085,970.6566462553474,1011.973507772787
-553.807875268313,837.4623342323832,856.3841882804018
-1029.6278545680739,553.8843539842862,744.2490554878578
-1169.9815941223558,211.83176721918295,876.7377238914412
-741.609010212458,-93.53520315296255,852.7866294810156
-267.6153426501405,-49.85147833357977,961.7800166213743
-220.2964315031127,167.32523338754828,1059.8726374449993
-382.17128173229395,299.8720256152713,1029.525882946776
-671.1741522334336,393.79400712781637,895.3689588187609
-851.059230216231,241.89708004262414,626.3127571596825
-879.9671651379423,141.21132088939652,590.8980130829591
-1067.4695232316847,54.052199272942346,199.84602285184036
-1546.1141164413946,-19.700917234733577,185.07543350685506
-1544.2786272580342,-56.738131777926206,801.393952063141
-535.5090678264239,119.63004695793163,643.2257702681345
251.41613089077313,571.4622220635997,806.5486175197443
641.723728286418,921.0403144804802,438.3770196754244
306.98862506564427,920.770089684041,115.46960480898169
-733.1708585500655,736.6501302687464,-185.98705980125732
-1836.743434302234,430.1061014719604,41.84313705495761
-1900.6796408559499,-241.96030244782878,113.7962505034849
-1256.1068254704717,-982.4231516368997,82.77811485063708
-1026.0486506605212,-930.3074954240237,486.3597660771008
-1146.4159524404358,-189.87319828891623,972.6359154247374
-894.3145722545416,613.8701799289258,1079.6653291389007
-357.2738906762248,984.6920202107755,1051.1336694997783
27.94777013557127,822.3511596722633,975.0383668225134
160.5084305037908,434.53982756598845,990.1067133016883
-12.72401890553859,-4.334844212855563,1083.1833500736748
-139.39214716544387,-242.6669657834225,1144.886378120969
-150.8986249126868,-215.5302779236539,1140.69534448563
-346.5240423590115,216.8773230409977,1297.211586015612
-557.6603631209434,532.5263979034635,1363.6359001289943
-542.2310371023744,561.3129865958305,1136.1372130136185
-395.91501685081045,357.3422116624944,954.5594061172776
-28.915480821687325,163.51965248071463,803.7260430422214
119.15180005404497,201.41842525225232,845.0622791677076
24.48389613170655,336.75108217383104,752.9217418792351
-66.57553802776688,475.8546496510022,652.9732375479905
-329.1399203601638,621.6322597421138,715.2666812825992
-468.6656503495078,689.1517490682345,787.5166341207243
-405.2831496994387,657.2172964264046,733.6287111296928
-196.80013052367528,357.3462905273463,698.5168227682237
-60.11777722259896,220.59622806972823,669.629282170772
-160.45336582829,264.8111230644512,766.0923964860581
-206.84127607286896,347.2276465459663,855.3858861078962
-128.18138711996454,295.8298705470268,801.7926611024153
-267.4685035154717,210.80185384407523,690.1041640111558
-691.3288431829424,164.87179617912338,805.5727491039245
-889.6279565396952,280.92977724299334,1061.2390571703895
-783.6682251329456,333.6766377917026,995.9272534453662
-569.4758148807188,349.921736780654,838.1710370004029
-356.38877700336,298.36794420112886,884.7078258120765
-99.28742231037104,194.6974756925148,767.2456955229361
57.37055977321513,81.14779256932798,754.2759250100697
145.14640575527832,100.5550315347239,837.9426205686957
-34.643124818363056,315.686804362346,940.4883420943952
-480.0130523675262,531.9522976755569,937.0121295243536
-582.2661153401009,484.8689409737271,774.7304125261941
-483.71870108548796,277.00998812030616,549.2793155664779
-485.4144891476703,119.24255479700001,643.9773011170993
-438.9898691194241,112.20447349502633,762.4346744301063
-173.64645419179845,90.70477686059971,754.7082846843724
342.5451096959717,106.98046733594043,864.4256703359456
318.459412745433,208.32292373032587,926.5172102603846
-569.3820009891248,182.88712251380443,764.1681919921687
-1505.1317218418117,139.0770548556337,667.8825082979407
-1392.5244604426591,-17.043944670198286,615.1509434924261
42.58406285530737,-326.9414122049834,967.3609234550026
1361.7800166213744,-291.4410119663698,904.5851539516555
1860.1255270658176,75.77562164449635,871.564703543004
1349.2579015260055,-37.95261378758292,-175.72871469869935
-69.01153808894986,102.63137768758955,881.8230486455619
-5656.855297170799,1806.5496372359576,4779.787185226352
-5173.010151274901,1864.6836585378292,-385.8096291801992
-2856.7451678197963,-904.4077233305973,-2107.8553838466755
351.9275185715816,-2471.2924393141393,1999.6329021633283
1184.8184650211847,-758.286468875712,895.6595779394595
1286.2190452397099,-734.586224653679,1038.3872168375542
-551.1545736821444,499.64870776462914,2447.0333906073943
-2431.707055926336,1751.831665247562,1939.765363299394
-2127.107625947699,1418.904518872398,461.94164164113135
-586.0676173820826,1047.7482116726917,549.0712934590304
366.13522456700304,300.6398719236437,-383.9037795781435
429.86136958084563,-323.82515945812287,360.91121840791715
-191.43540352719842,-163.66139303431856,849.4909066806708
-963.6756690613005,60.16101319002922,970.6056604446984
-1261.1646178868423,533.4104918601154,846.8141516216039
-1218.5506773464945,843.9620053739045,567.7565733456379
-783.4051383499973,682.1870873335952,598.3684540592353
-142.06482335965904,145.71846655075893,876.6592057430418
314.7425471491284,-192.25525536243268,1124.0433787277002
261.3828371564194,-273.9110705490662,601.5448700626616
-427.76993162802796,-174.7477477018146,700.7775336123957
-615.8208970443526,83.78171954744995,889.3944415269232
229.291348217791,281.2520075662943,783.648850524899
773.2059367877921,469.2988941177671,657.7251151004676
254.33761784095492,291.1493731294581,615.2315010732514
-582.2385830023505,278.078650711507,151.4135816002407
-1348.0546363946917,167.28036587417725,-362.03494567461877
-1913.028404195113,32.12401788582238,34.19373588330368
-1709.6154140302756,110.31493935237825,2886.2557550233773
756.9506406367109,543.5729836386535,4173.688262556531
4891.731631087069,1163.0781153604953,-342.5716223175091
3330.301377126746,1724.19735587586,-834.883471929762
-1887.3111613038093,581.11179658701,440.887560991776
-3922.256835922563,434.5418669984144,434.44805310682045
-2655.728510755457,442.99735383642735,1191.2222828386862
-870.0718390072043,-70.20899083784984,2475.5752474086466
1122.156903733691,-898.7126082811154,2005.8633682246234
1359.5978239256017,-210.76718349283396,1269.2713617800168
-763.6583338856797,51.7952613787583,1075.6680415840274
-2028.8987574757946,369.0607903820367,400.235554445198
-2032.9776223277063,1013.9711318340106,260.63742460473253
-850.961337459785,683.0518066822004,204.89157867365515
81.83508129687509,226.18937149791216,985.7066378426885
363.28919661658165,406.56085411430007,1067.8060295819676
-501.2425242055137,504.5749567895256,885.7673109573607
-1356.9567589339888,457.9259991944242,543.4383810985404
-1528.3710543355787,491.53074699311185,258.1850071125206
-1077.5035307673877,458.1554353423443,382.7892297573586
-681.6201251191794,437.517398907884,585.0203688313543
-570.8585500655169,379.4741323489673,681.0653994993194
-595.8405775672632,295.220080251666,755.5434322628014
-665.008948009769,149.05191885098378,790.3218734226265
-715.0005353510119,34.604069687405996,927.3207466362112
-554.3034573478202,-201.51325886005927,1056.1098846191105
-287.4478032763482,-420.5870506238115,1021.6026879719375
-42.46037127867315,-538.7589033971846,1002.1230491554202
-31.791590400391577,-536.2055339998878,864.913094685749
-339.6980620293373,-397.56899654826066,954.0240551054642
-753.4744280666691,-266.3111256137417,990.5543687191855
-960.2004762074715,-129.19702446809055,998.7692025309358
-960.0842285591921,-41.34041696195949,872.8862557550235
-803.0734246659156,-123.90673675516105,863.7424604732505
-602.3473867222752,-204.5979004043175,670.7907389373538
-506.6623158774913,44.522237461314525,490.8505962790556
-593.3993769533939,321.74595809986084,264.913094685749
-751.2402298440345,524.8183630495633,336.43191099916896
-685.4195877287351,368.9190498284328,267.3002503403303
-415.0714056278138,85.0687033798494,346.8748247362759
-185.4537482218699,56.84764929920004,421.0530609331424
-254.56501455644897,298.87678259140483,599.7338540684128
-535.6242957584905,528.0896126607965,889.0966843927337
-646.7030025543892,591.9085518500202,1004.9568405112858
-493.85264081006267,510.2914858794798,1097.7856862435185
-369.7766311635472,405.2596962265402,1143.173254883166
-479.1340569919392,345.9285280906324,1334.0437356283746
-236.02963295314916,289.075270352261,1247.6023922542358
79.51624662856328,379.211045566019,1220.6308984209695
-31.93465658507238,403.32121570566915,1222.8028939546125
-169.82353810934418,356.26641105780266,1032.5136514508015
-282.75608898043674,427.3426705347903,1093.380512203454
-506.80099728245636,390.3137156929227,1082.2961969683838
-477.57389118608296,388.67707117109313,925.7585413979291
-306.8682985525129,371.2134113076331,853.8063456939934
-203.66282063701675,400.0989124726589,713.9685825434782
-198.80183344975097,485.2839654724091,725.528085533796
-272.0470293117426,578.5268159871108,704.4933794924873
-485.4960664447085,603.9534397577155,764.0040176818793
-727.6623515675589,536.4645419179842,792.0013460254012
-827.1132343868702,409.98098229262797,838.0333753116508
-696.5293958691296,289.1415519061046,852.1717406045898
-408.75426368841556,233.5292887989273,943.0111200053027
-9.912579729061402,273.4307842127536,995.9466280534128
170.06928971667188,465.8400167233459,1037.2349375168892
31.007122717747656,579.8187964289539,1113.2649783565237
-39.35441766556367,509.5929802735899,986.8589171633536
-58.8911605900078,355.19774846660175,1010.6356401013599
-125.89824251910694,258.78052138089976,986.4092223134303
-362.2664212549648,171.4438671717661,963.5400468049743
-568.8537879908022,212.0459076239083,995.6305160273897
-619.4143769788868,320.4488790769529,959.1858585755585
-478.79245206059164,364.20388205962286,784.5360036301898
-304.7972549239547,337.8482968189953,587.0761167167178
-289.35569231082997,322.2884471251651,591.2844855276777
-426.5523904697323,308.295901250682,636.3722576007099
-631.1319359822162,408.32598287896485,825.276725487297
-726.6069452871267,518.4165846644879,937.2894923342835
-725.0172077110941,544.8517077697277,866.580330693968
-656.4341543748376,388.64851911712975,766.0944359184839
-649.6968893556924,205.83991475172465,664.772373848358
-774.0971687579348,167.89933361545485,639.4885103475704
-968.8150387747091,130.25548989716162,585.6791055049381
-1029.4748971361273,72.05508506982508,514.3234437855946
-911.5855057537489,106.49406270234994,574.8425813096216
-761.7565631484758,246.24005139369717,757.1484655820286
-511.8363559421414,306.95395471440304,843.1044240387901
-288.566431961985,491.5378850066027,912.5440389939481
-325.1395736566514,596.5992464297187,946.9635400468052
-594.4099157204552,601.6651965757931,844.7971529523335
-808.9633055120761,367.07030433430384,814.9031524526724
-797.4619263458981,94.64047355620932,647.2352944175636
-654.3722881921963,-1.883273085100417,794.9156949620922
-460.5262755375179,-30.110078365190972,837.1604982333417
-344.73138125659636,-23.231174764063162,842.7964697424708
-356.3663432466745,37.63344261292083,716.8288865208814
-562.8537777936401,79.25703476722428,862.7309019899762
-629.3158214069025,21.595142071961376,846.2318936639934
-553.1358822839604,-72.90522247658478,729.9526341819072
-541.7201592796725,-87.48186179786167,840.062610575477
-570.6943757552274,-36.574161410879356,882.6276047376017
-512.0678315224874,35.56617193435068,781.2219259380116
-479.44303100447155,174.80689124216732,804.7885873361445
-595.4571642711834,233.52520993407535,779.304859457613
-770.6709222823289,235.40760606323263,835.5432283195588
-719.803398714138,203.32325513809508,753.9965227677138
-637.1360250442302,218.5833082653098,802.2790657360058
-660.7302187801135,293.0154537992077,884.091917219438
-644.3270637781507,330.7673874360766,793.9439054111241
-627.1958314001214,381.28412862700316,833.2763991781088
-780.9894306414526,418.31410318508364,944.661020837901
-867.2910728944136,337.4862975633882,916.1691301310847
-732.7986621323287,185.73518989665178,938.3183859931783
-518.9040090142913,235.78999964309935,1098.3363329985268
-381.13525005990834,311.7170491452229,1056.9766434001417
-153.2837411348422,394.05199532969976,946.2966456435174
-106.24321251395737,404.484711904677,856.699280590212
-375.1403384438111,410.64175839863776,876.1982940147758
-745.5879428754979,301.3740675969878,878.8679110603521
-856.4474106856063,203.91978912268718,700.9274318957035
-799.9163832705359,113.33431905900588,572.5675944384678
-792.3082806055075,111.38054279494018,792.4673563347321
-811.875615016341,107.59229706372719,784.3371589686591
-860.3906532811919,177.8905130702126,814.7705893449854
-786.1838650303622,137.95740645378393,741.4489147670205
-715.2585235528953,121.37070253348494,679.7734190574763
-722.0375969367726,98.49112591965657,711.1460080659554
-793.4534219126817,122.67899843473563,757.090341757889
-887.4365863980056,103.70819800849426,716.5005379003024
-931.676974298053,34.05607419455166,676.8264392019702
-845.834204340932,-124.66948448246855,741.4417767535297
-688.2136101522947,-262.1445651675139,650.0752040707073
-503.71941488683706,-266.55687722106944,750.9689853313823
-410.43781515604206,-122.18749522008027,967.7341395889525
-377.6325248683292,106.91928436316174,1089.1180984332061
-373.80960878587496,257.49567895254756,1057.2723611019055
-477.8726680364855,288.1932158280351,937.8666517108289
-602.1546603580224,222.25224719960437,810.6397189662117
-709.0331560726651,168.27866804668264,738.5773939112745
-835.2424120367302,150.18992214466715,768.1450852227827
-833.8974063518124,122.49748894882555,701.5402813397033
-702.6609494577659,75.19836029632954,719.3639010263445
-540.171210352159,152.34458250268952,835.351521671519
-359.2317458051425,229.13737106963134,928.0692183365371
-167.0509297262572,293.1786083932842,903.2595228747841
-187.98978244354598,274.5942804117614,969.7276847853243
-346.85443041201637,306.49100355371104,935.8435347442809
-491.341079777498,287.8036842346775,882.7214186291956
-653.4045775060802,258.1034298154824,880.39442623118
-752.2487291786697,192.56626880739094,820.2658400167235
-642.9402497285006,31.755900332937347,673.3094379834092
-481.6211448353924,0.47539271820652323,777.8721581783791
-607.6611279081033,192.96599756287827,991.1886322036579
-721.5950401003402,328.4475330515518,898.7584955106995
-658.2410915042344,331.26296951558385,836.9045494638842
-725.7106147359191,227.0051444682945,800.9238628889581
-794.9717793538059,55.649890635436165,616.0075051113275
-629.9776172291253,-123.45398275659885,634.7815003084643
-445.5211514635477,-30.331764669892376,825.6122121213666
-301.56475452881466,151.41868018130555,940.9696481469208
-167.45881621144838,235.14757842892328,903.4491900903979
-137.67698449521498,266.5385223292358,978.3575430957566
-244.36377356181777,181.71750801751875,918.1759316382252
-501.38834362396955,51.69981594122356,863.7444999056763
-699.1775988742334,53.89699846532711,935.3418343674957
-811.9918626646206,58.35509577684531,902.2408263780192
-763.7337928854402,112.57055161548541,949.87584955107
-554.3829952124324,90.97469574217496,882.4409966706268
-401.78144422407246,148.32384147491754,939.478823043547
-449.16969607358277,198.5978902071554,895.4281023591136
-524.6317549825884,272.97293163312656,925.4444688043318
-537.4822186985363,269.87299434567365,999.8297073924329
-470.51847470848867,218.53028302223495,942.1362034945676
-526.6752662733962,214.53095603493549,878.5150892506616
-768.8068810450053,146.05497290104165,796.6267787674691
-923.452963040386,88.19280794154987,680.6911636491566
-845.1204029918475,9.680441333176978,623.2607465342396
-649.3654815864745,20.55125858473587,712.4971320481511
-542.251431426634,133.5094043327742,890.3285015780109
-565.5652032039484,261.0830405898039,858.1523761937053
-688.5501165025775,308.45905584475844,856.1506732676297
-688.704093650737,241.77165494842785,754.3330291179965
-569.9989292979765,89.05038927666432,654.5864285969216
-529.0175544146065,74.91518510398556,839.7046901847217
-596.3453370926873,158.05805244400486,991.4761921757176
-676.1330321771452,172.42177502001195,797.925897222803
-705.1623133282009,234.90182682159556,836.5262347488695
-640.4235901148711,169.5461752994142,939.7572055696901
-508.524317682389,133.00260537492417,863.3631260420226
-540.2793002707347,117.56002304558643,839.3926570235503
-746.6392702910781,87.70895259849185,781.4574803832095
-599.3800125425095,43.30836728138559,705.3203693412124
-499.52838125149776,155.44146064150348,784.9306338046123
-640.0350782377266,218.85251334553595,829.707392432686
-644.1965401028895,85.5075892379151,626.01398030928
-498.5076453223069,-15.22252757057711,738.4254561955408
-551.8928482203403,32.674664640830464,855.2033569057733
-898.5219213492885,86.59939938715056,955.793262734981
-944.4173086629993,-11.497096358083548,763.1311406035701
-875.9892521911153,-100.09432374970046,866.4946745320779
-690.3040283888994,-179.57712368647807,794.9768779348708
-445.4110221125461,-92.09454808726733,841.5208047600353
-184.4625840628553,228.14008861333892,969.9367266089848
-209.42319752412905,418.0867064695896,988.545527779619
-277.94914675245883,351.1872046009596,803.2875650706409
-432.84811836865805,244.05276011685947,801.3286902255103
-624.9188050965416,118.2493512055595,842.046978325932
-680.3108095017158,48.78944389776326,813.9792895637145
-512.3870026971495,157.1974119602515,969.1882549086591
-365.15935615118315,302.0226071084418,853.1669836284563
-403.61285454258086,352.5454665966462,844.5707759530524
-549.4445095929804,322.93188805555417,866.0347825200248
-640.3165199125084,262.25877338336744,923.7476610259366
-623.2026227100998,188.19372568614156,877.157846971188
-638.9164495520897,203.68525439370225,865.0966436040851
-611.0700392080885,211.41980186913983,889.0355014199549
-603.5832827724045,315.5766750113444,861.3236936160667
-720.1154318753091,378.02715504275164,820.1210403144806
-831.6101828861028,273.6857132659981,736.386023769585
-885.474652404236,169.85209016330757,759.4774974124703
-901.8951425818195,84.75677219029946,747.7446426659461
-786.425537772838,-12.717186806911638,765.5019807987438
-551.4747645730195,27.92105357079125,757.1097163659355
-469.1918239154044,162.80381169920412,769.6614032314807
-494.5572647132303,198.17266854634357,808.4085798922162
-506.169792946623,93.97765801777366,828.2084095996086
-469.7332932244957,-11.117456011991864,789.8630011267866
-531.4322424069383,-24.107110991011204,1012.6862894056586
-619.8712098423009,3.6583746743281353,1011.2678641534062
-709.9947484615033,95.6574365354122,836.923924071931
-807.6957982593445,153.98734532179697,784.2433450770652
-732.0991368102258,156.88435908286726,742.1953470349202
-570.8993387140359,230.84233657773046,932.7425777406149
-431.03200379334436,372.9479485859086,938.2826959257239
-339.45027098958366,399.0414667598008,908.1694564402728
-237.19720801700888,350.44893006276357,756.804821218255
-344.04715167768813,242.41509587881694,696.699688476697
-538.9628466397802,182.54653729866982,752.8513814605396
-661.4562567237539,203.0132614093498,770.5699703772441
-621.9402140384332,226.13328710619837,794.6322138548843
-508.9179281405985,296.10009534346597,929.5263928048824
-491.2696996425895,362.19402140384335,980.5876624535392
-496.67725472001143,354.1097112673543,937.3629119016178
-479.32678335619204,339.02912819362376,996.543162038005
-478.2887122513805,254.32742067882512,1043.944670198284
-308.20820565636586,147.88332407091107,972.2790147501952
-201.4561547521325,139.0393253557535,942.5104393447305
-348.79698979773934,210.45209118302378,1010.7060005200555
-388.3058944695692,221.09486929787445,868.7920951599172
-240.0381373863654,165.36227967756577,824.1050715585852
-181.50030846415447,211.44325534203833,836.6006740324169
-487.57934666782245,338.95162976143746,980.7212452774394
-632.2577026813439,389.7304380190993,907.7391361983961
-425.22471996043504,290.3152452672422,789.5132384657351
-133.17697684734338,171.99247449434824,794.2865300586848
196.91841760438072,210.59179230420176,642.1163190284145
292.7095389353143,229.02010370513887,623.8654382485355
307.60453365828295,251.94230445666975,604.3878388644441
466.56911381562514,202.6308678294831,422.4786241988855
-220.64619416416414,248.21320226580949,588.639341671213
-1859.4525143652522,108.35096592618275,1675.2305833286598
-2033.3345230022487,31.21239159142011,1119.5158387420781
-742.762309249336,-115.99985723973019,935.2622965028834
416.3746029479996,-180.2083280223114,831.1788429280133
158.1620634977286,106.6857693503898,1101.0691724493076
-1567.3751994819843,599.4687278530386,2333.3554271846147
-3046.1880458668356,903.5073139145376,1721.4951079114685
-2483.9267231929357,249.78254551758252,75.92806921833655
-650.174116543366,-1075.0562118562405,-1085.2227824996305
459.15577694727557,-839.9494220758364,645.6639117333647
794.4088960042421,-442.76893740472036,790.6318671513718
186.10534688196276,327.8448807696818,1194.9340498539257
-888.3920604895658,1422.6162858876376,1528.3608571734487
-1735.3020654351894,1371.3245603748478,1107.6871306715343
-1388.557764374175,543.8054789352124,169.8367944201129
-1007.3694890711917,-412.2355748395222,29.635706382913643
-1121.0148215751558,-760.2922506666396,378.3983317442756
-1498.7890869970888,-704.3383826281147,246.9640499049115
-1323.3877012027554,-564.1549356813999,500.29418812744416
-486.8767621970806,195.612161135556,2252.787649197229
755.5322153844586,743.4179867742808,1869.2417900098405
1811.7501899221447,943.406769895938,75.13952267084072
1122.6769590023098,962.4846405245422,304.15483370977864
-559.1073404271592,482.8315479801972,998.7875574227694
-1067.5816920151124,253.22102858774406,1266.671085436923
-131.93802164857522,-25.65004359286811,759.6498294524635
-95.48510449541894,-42.54276434868177,1925.8666313165047
-684.4049700968221,-294.0779980931307,544.2755681093952
-1513.1466912758183,-759.1430304946134,-267.19216042175464
-1566.365680431136,-746.8340360877569,195.07477069131664
-671.6880892047744,-330.5032809369153,807.5387619625459
304.5841342354423,283.32407091106546,1510.8217383102285
618.6913981838854,949.5189488765278,1434.791697470594
-348.5593959201155,1050.5422340962511,1066.7455247204705
-1346.5454563994842,815.8321139226954,770.0142250411711
-1315.5562806870848,472.79957987692035,512.6113402640046
-516.5892532108315,275.862807380706,823.5146558712711
132.0226580942524,116.69632341319414,900.4858947754841
523.6395711073609,153.9129060382496,1078.9107391412972
373.1916607608103,513.192578505402,887.0623505478426
-610.4408743046811,661.5510903315608,1036.6638964376216
-1489.4280921619513,644.0670361438413,905.8159514207198
-1821.4884797560842,482.2676449144204,693.3825516358798
-1449.4858080996062,103.33294244211837,613.8915939693984
-824.1132292882892,-104.89310824797461,808.4187770543459
-217.8450337271138,-193.20970973778,982.63219346056
186.4918193266814,-3.308764970708652,940.9523129713001
326.3173458826409,295.1323846573499,690.8648723060373
62.06971799748131,466.5242463022542,588.2131002941882
-599.6726710956341,608.0690143932944,691.6367974792615
-1308.4284643583692,420.5187296375419,728.7483493343804
-1555.3221538445853,-209.12747982236547,625.1339652174801
-1420.9031626498347,-642.8158443505173,703.1779455777457
-1060.8209735230687,-648.8923332636527,1203.091779557749
-851.3029423911327,-517.8384055717295,1331.3822763125024
-683.9246837605095,-104.60044969484993,963.5777763048544
-375.46766734817703,402.8358307882917,868.3709523639573
19.96583950686524,823.2138395884426,633.4742241234264
120.08687982134575,917.8506421662852,57.735414234218624
-440.53575889829864,519.1854506890733,411.74815048971874
-935.7558391499646,65.04830905558984,1108.3703405342296
-816.404174718176,28.46945695013078,1447.7930791860626
-589.1104505616088,289.30776564882,1395.3796658389972
-644.8185669928059,453.3525719792183,1087.8740446533732
-453.07520916928826,475.6751795975181,725.6759443846779
-153.0848964733115,301.2924902999496,526.6783254220351
-13.002605374924158,170.25385835122088,705.8261485828494
-82.79310467896785,181.2708723162344,579.1559808905182
-1033.2580442862752,468.1353979187593,1101.6198192043157
-1462.0895004920133,533.0770446584716,1495.2914603865745
189.61317065460685,196.3004695793161,767.6423651297845
1318.5134577047208,125.75038366822515,792.6396883747253
1028.699912814264,175.1209638357645,866.624178491126
-322.2690725171185,269.0572213752913,1097.2452366506404
-1263.1326701778896,258.84680293474327,1291.1952603590423
-905.3835917464172,71.42347284750655,983.2144514181704
-431.86307250692136,55.06712281971927,868.6993009845362
-722.5015678136775,244.25466392702913,1001.069682307414
-1037.1227687334615,382.2018732186833,1007.6652067729551
-582.3446334885002,318.78776136601186,806.6862792084964
205.40449592878306,500.4940525051879,1049.4307434241052
522.9043557178038,488.71734996150576,877.6136601183892
339.06277882865203,624.5975944894536,768.4367240596944
-383.80690653791055,642.1744428525542,800.7199196463625
-772.8745290185743,380.6111159264377,630.9402293341764
-644.8399810332785,64.1675801624408,834.0819749863615
-438.9205284169416,-98.19020766520678,1030.0153467290056
-529.0675205090424,-30.24141781342253,1193.2719124267717
-566.9387609428297,-77.11654846456233,1110.4505616087044
-448.4283623867478,-44.515813249172766,966.9030708753755
-456.2659011996962,66.5097663320298,829.0486557591024
-734.7809904503578,207.41333686834957,765.5325722851331
-921.4380038035416,200.693407024825,715.6633508894475
-774.3143683112991,117.64058062641168,643.5796117940378
-531.6474025278766,210.41844054799552,847.0578637965057
-452.41035419842666,504.86863505886316,961.0651955560769
-367.9747926152152,617.9928925779956,706.8479042282534
-175.24027063268295,658.0045173428235,591.8616449042232
-416.820218933071,873.5786430636355,689.5555566885736
-1159.7028546955385,676.7203887158205,522.1069376392551
-1722.1171348013852,139.44721184094468,519.4199854180582
-1869.9759856831847,-248.83318972330005,667.6500130013818
-1461.5082622506159,-575.3911886322037,851.4783335797648
-525.4495673853967,-643.5000739294255,979.54347305145
279.5755941121586,-73.38632458586777,973.9799013934423
681.7445304971627,375.71545838793065,927.4696252033061
443.1594887142909,689.4607230807667,758.0029877685041
-423.8022158433309,601.617269913783,988.6393416712131
-792.4010747808886,239.79646464388964,874.4494807095186
-580.5254597645476,-164.49042231546963,847.59015565968
-223.37801389873198,-322.04065608541146,849.5469910723847
-125.34555633167291,-69.34284388654638,1069.9372364670912
-66.92621843340999,290.39580284806743,681.0653994993194
-313.0171873167698,491.2595024804598,429.4504239470156
-1026.1812137682084,385.69542096434566,544.7120066485497
-1410.1553537650475,267.42771486695256,825.8569440124816
-829.2342441098642,108.22044225092158,839.0204606058136
69.08495765628426,358.4047559564174,1479.567436382455
908.436622088073,629.5513758521005,525.7728174249107
386.52648967792265,836.9524761258943,760.5818500711252
-754.8948927513474,777.042109181015,845.7261144223563
-1572.9530471669736,610.2797591430306,947.8496734358829
-1534.7646749909502,309.5389353143021,666.8627920849628
-1001.1859299556934,116.6514558998231,765.7732253113959
-217.30458413423545,57.949146752458795,946.4710171159368
205.14548801068665,263.85666868910386,979.5771236864782
-58.353668174147145,225.89671294478748,830.5466188759669
-744.1419852854951,236.083677912437,934.0539327905046
-1432.7930536931574,264.8621088751001,951.1137850336253
-1393.3606277373008,-30.830303926417283,371.85889167044814
-707.6239082663296,-449.3960730728639,462.0344358165123
-65.98532628369526,-369.75419740686175,844.2159147109361
-1.3243462344429546,-143.4934457740411,1107.3710186455112
-524.5756705908747,222.78147991413994,937.3884048069424
-1360.1994564912586,344.24497662300587,806.7229889921636
-1769.5441358669884,249.50926157250439,239.69041415773995
-1303.258503158571,216.88752020312748,30.930440058531712
-425.77740614786904,160.74092580034977,578.0118592995569
400.3834132960797,162.6029276052475,1077.0344613094176
775.1332004303204,478.5028526561059,822.556122631072
-168.0492318987626,680.114004272611,905.8638780827297
-1704.79215634289,669.0143932943463,910.3547082846845
-1883.4464368566232,309.0056237349146,1163.9958599521754
-444.3617341293919,-221.1427959598844,1120.6171322520943
927.2779185552661,-257.94537380247084,807.6968179755575
1148.037301219071,33.26997496596697,1116.1405780771213
53.54213722321079,296.5773225311396,1043.9140787118945
-977.4245027608818,502.94748971361275,1149.4343124308507
-814.6349670886593,488.3563704221116,959.6192379660743
79.1873881498779,237.98340921721484,573.5414234218619
435.7808221971826,85.15262602417748,669.6649722382261
-280.13235916444455,161.53018614919472,1223.8328073297203
-1246.0728179347689,238.95621848439583,1676.1279335960805
-821.0061539873454,199.23113397541465,1502.0929675271373
278.4671625886516,413.9313629017045,952.696384596167
771.1960761320125,448.4895453595265,492.93081735353053
203.5904207858953,560.7093145977475,429.10575986702906
-880.1078859753331,449.2553522354729,856.7308917928141
-1443.8773689282273,493.048084718023,1362.2592832414741
-771.6253766576763,330.842846435837,1121.7082285999807
28.23930700086166,315.51855118720465,976.7525097765293
178.20662509623574,167.40171210352162,555.6392855868212
-216.45516052882485,20.29225066663948,200.93304033487482
-576.621986101268,-97.98228752938059,502.057277459683
-434.33282517475396,6.235605431008551,1029.7400233515013
-211.66045489540267,220.69208139374814,1409.1152432278097
-286.64426690052164,370.432308688492,1215.1754166815376
-611.6288436928004,352.1773490437611,621.6781469716979
-939.3686936925454,82.33137717773144,444.9959976138641
-853.6044418838238,-242.47525913538266,541.5672018477258
-556.1654591527179,-266.6364150856817,1126.9495699346874
-523.7486807421495,-86.83566763369755,1358.374164470028
-1055.3756889457666,100.68667689781935,1094.6857489560657
-1408.9826801201227,126.57737351695026,221.95754921405376
-942.3554424803579,-231.35525383285832,-21.02073592919091
-131.624968771191,-238.97253394380346,701.505610988462
370.5424380394936,316.5678391703589,962.2531649441961
-99.24031142133146,664.9885536855094,1005.0608515650096
-1669.632341319411,748.0964447594235,1130.3962107345526
-2216.0166825572446,258.8264086104837,24.965915985581216
-1319.288442026584,-279.2166540051904,781.9663187734855
426.21792355187563,-96.63932127688865,1097.9182493512058
1545.818398739631,303.6235615628171,979.9013934422052
1278.9382714790474,287.98723315301356,728.7055212534352
-166.85922307821735,243.02182702553884,919.1303860135725
-1277.0008106743894,177.13286392396998,796.7583221589433
-1454.4620232189384,65.45762314347918,700.2860303977404
-974.8619559176682,-187.9377769166841,476.7723942426823
-454.05107758510815,-199.4055054478339,947.7181300444087
-295.2904406703615,75.754615490509,1137.5546185496578
-319.46179378279027,243.6010258345103,850.1241504489301
-268.7533459438239,376.5414285204428,618.8820851157124
-78.7391209026528,411.8858121784708,-18.103735730346248
-341.01961424135663,398.40006526183765,-25.911600801496945
-932.549851376362,407.4459677871649,463.6241733925449
-1539.3432007872211,391.60671585097873,1184.5635359679402
-1843.5551386049265,428.89059974609074,1623.3678167366024
-1140.8075132690574,293.27650114973005,923.9954520656902
-160.52882482805038,249.22068188423165,322.661663259115
454.0439395716173,188.8993693055223,175.08629348452328
419.6285173836122,212.52925310885985,621.897385957488
-45.10123232704339,271.702365231756,1203.428285908032
-702.4182569990772,436.5323530461473,1318.6154293260188
-1154.2881616046254,321.9091126939373,1084.600755609714
-1018.3344975093432,-0.5182840215568009,628.5489948147432
-551.7898568828296,-139.21675597681167,671.3271096653802
-484.22550004333806,-125.62801772266779,950.941452993632
-1462.935864948785,-136.24224378355504,1497.534836055126
-2157.0159024743416,-507.8451866845458,440.52148287131695
-1613.7213013618314,-774.7844574854819,57.09778568624353
-390.4187464628594,-543.2191421127501,631.9364920742559
597.5669571158347,307.878837319574,624.2417135311243
935.0634518413527,1167.0550085911093,516.5086956300063
529.9740482223797,1303.2381088343116,247.032370891181
-801.5326334681059,1706.270744851708,1308.9281253027284
-2160.4523461120775,1244.9715244247527,1313.6698056930757
-2183.273594958523,277.50455048360044,410.00647519795245
-938.8455792752878,-745.1045973905464,74.95587178088338
526.7792773271199,-726.0613971131835,461.83559115498167
1587.4126230670006,3.7371885404291993,797.0795327660313
1201.8885144264352,1063.0847435158796,1235.1414601316455
-589.0441690077653,1569.608377988406,1355.7330994784152
-2086.7064695895133,1081.3376637281847,1252.537818725049
-1471.2873407330742,244.86343450617696,844.6401166555348
152.75348870409366,-378.40546975776647,933.8632458586777
1511.5151453350536,-308.06340595412297,1338.5916699382565
1924.887703752046,472.858723417273,769.1546042736308
185.0550391825955,876.8447940938038,718.1830696517161
-2208.7461059587117,639.2396995916037,600.7107422004457
-2485.8335925112046,397.17844523869013,546.3568089000831
-658.3257279499115,-60.80343440420531,693.0144340829947
601.0135979157002,-93.76759647790021,1139.7775998939496
974.2888754059746,190.1189498962439,1627.130569562491
869.6680313868651,799.961250783907,1372.334079425696
76.74996048599675,953.9404383760001,1022.4184609423199
-1045.5150331662699,744.1134332315318,802.2382770874867
-1294.907027374282,371.58968659022196,462.2414382077468
-772.1107615750537,-161.85649533734764,542.5155379257953
300.87746580126753,-429.3168411231155,995.1237170695397
997.1407157388101,-98.89727888728568,1345.8826408610487
828.6407692739111,420.17100640891647,1267.038183273595
-373.44455038162886,683.3934116135481,1091.157530859162
-1578.6022749868714,659.0680813529596,774.917020593169
-2066.6384545181077,462.2424579239598,403.28042705715
-1491.069835264846,33.22816660123488,95.45532878199998
-210.81816930348285,-404.97213625448046,673.4063110236422
959.110399575798,-266.4039197891227,1616.6784783794672
798.0696772088329,180.91193220926618,878.8485364523054
-611.6879872331531,595.4622628522483,569.8357747039
-1757.4910902295892,828.9548418675083,579.3578847006879
-2011.0537237486808,1092.8502597727054,876.8651884180633
-1322.164041747182,1046.6877068111946,647.9378788883055
-64.38070085095319,239.83317442755686,653.8022668291414
699.2938465225129,97.20189871158857,1380.0023453472902
505.2112597064238,-29.230267216633614,918.3421453809406
-500.2635966410549,-6.070136081128623,463.64558743301745
-1077.9522059010978,78.58065700315603,336.9672620109824
-608.8674521880562,409.80253195535687,578.3544839471175
308.60385554700133,437.6876915154513,1039.4069330505322
662.2149255862095,504.36081638480016,1448.7210209398727
-364.4832843019788,382.54347815003086,1633.9014852166642
-2008.8511367286485,449.5826811398388,1628.6703410440875
-2851.6873754034254,464.71730917285726,422.9099641569752
-1861.4613553048189,-187.27088251339654,-655.026946000928
-394.65260817914384,-731.6453630954506,326.38872601754935
647.636042889264,-536.2789535672223,1020.2974512193257
1019.6203596539084,49.38475422289977,1074.9134515864237
576.9431967083561,629.3443734608659,1074.1792559130795
-91.9017197513932,928.442434470487,1051.378401390893
-556.070625544911,940.2935762977165,1103.2513651450804
-1076.0351394206994,690.3601127806132,821.5853527963169
-1266.946408814427,293.39580794664846,396.2056359715092
-1069.2336322801366,-83.30265687059293,843.9201970091725
-544.4356635548327,-132.51314159269475,993.2341829268915
-72.7753106310514,13.736597105025673,458.20744086920615
-68.93016473515421,304.2200955474092,64.8234616306282
-174.28377682490967,485.33189213441904,321.65928222175773
-154.80107885975335,422.6978631846757,1118.8632203657723
-363.4472526295932,394.38850167998254,1661.3522456700302
-840.2594158045817,420.50853247541215,1567.7830859671756
-1009.4048426322955,327.1178231098286,929.7731641284232
-753.3592001346026,126.51109196310668,357.36668485160584
-318.71536151489045,35.121473693871,470.1503571556036
-277.479057578276,165.06044367852428,1188.5302320364244
-569.0281594632214,309.54607332779295,1081.643578592078
-720.8302529406067,262.98685075943365,934.312940708601
-535.4458454212194,198.87627273329835,850.964396608424
-364.3058536809207,186.2562648814835,457.1836457913763
-44.57709819357273,168.31129896549794,462.0334161002993
268.40766214762436,222.17474876741804,702.0175085273769
-110.55559237864102,375.62062478012376,1516.0732768070648
-1174.8048518097414,601.7947005348412,1212.8708580402076
-1794.282451193833,277.31182411934765,298.09466025605076
-1618.075489591247,-14.959032901143614,219.30322791167222
-1019.8895647341345,-104.30677142551228,271.7360158667843
-335.4366679753025,-15.292378131166098,442.59762508094
268.86245557861247,254.18058154415627,819.6540102889367
464.0769273911072,395.2246689746244,755.3843565335768
426.5564693345842,418.82396129157263,334.8085227881081
84.99487592602979,289.6452917153157,730.4390388154977
-801.9680522910476,193.17096052168685,1274.7778293300976
-1706.3115335002271,166.7083050786966,1414.376978886776
-1946.597461926346,208.57479363493144,696.3570638291365
-1353.4489351613447,-15.460427363064861,-35.756145064828466
-377.35720149082516,-449.4970249779487,-121.71128774861958
514.6507726899604,-446.06466020506497,609.844340320089
913.6330959094086,12.078028684617072,1136.249381797046
219.60098504586176,247.30055625519424,1733.3748017926612
-1032.1771451005186,497.4308250014021,1348.7888320680356
-1722.0865433149954,464.9763170909536,1008.8990633906585
-1501.6340952312974,411.2851993290268,824.0010605048617
-879.8509174896627,209.75766444198584,469.0052158484295
-292.3495791121331,-83.08923026721664,255.09016840613262
50.32187342262649,-211.25970642370234,500.05659424982036
-80.44908302019549,-156.99244900144294,827.583323561053
-554.2300377804858,81.29646719318015,666.6221390587
-749.968643726451,233.6261618391602,655.3267425675435
-411.8113728949234,379.5149209974864,824.7342364619927
-34.21545583864011,439.4987075097001,1371.783432670688
-146.07536722530122,463.5048665956265,1362.1777059444357
-675.1337102884269,358.1681817950065,1232.949070273743
-1177.3439451800566,151.18414545232065,1010.2685422646878
-1320.2979610774323,-21.71740604589743,588.775983643752
-1205.4677183339877,-120.34996660429402,477.0150867013711
-807.9741807854875,-187.04960409518034,290.88730606272276
-223.54524735766037,-247.83386783458164,496.0776615867805
231.20331611712461,107.94613858963051,874.527998857918
206.02550310248662,381.9265498411793,1202.8980334772834
-403.2121060708805,453.17922022301195,1279.8662132328575
-1104.6789678432494,362.01353163414626,1285.3726807829382
-1400.1111490672147,257.36515527728636,1006.5741104250687
-1432.1608296411111,142.31159468319967,661.1146517924062
-1056.1608704297596,-33.92769192333774,321.9753942477809
-326.49987508476397,-188.8290088868268,513.9604248137745
270.77646291037206,22.946673940642324,922.5036072461036
178.76848872958658,349.1763242289671,978.8939138237829
-506.11166912248325,309.2625922205851,674.4229680879812
-952.791218203974,151.59203193751182,821.3243054457945
-945.9387252527623,325.2272692509675,1205.4575211718582
-974.0257886230264,470.9120851666982,1031.8610330744955
-703.7367500624576,161.75962229711473,448.25705006296755
-155.23343853405598,-4.336669504876793,527.6766275945405
174.93129662015062,-22.528896208185262,944.7691107564766
-198.79265600383414,60.4764114147033,813.3032177145102
-691.8193266813847,57.48833699581407,480.1843646913064
-879.3461579642387,41.953878235687014,740.3771930271806
-748.8367587300455,77.56461176854482,942.3676790749136
-588.0407682541949,166.74501486236383,673.6765358200813
-426.8858376713761,208.7991312017866,758.3660067403242
-436.21318187148523,66.6815885139166,1296.3754187209702
-774.2470670412425,-15.516613726399944,895.2058042246844
-1078.7577817093504,91.95658048365141,533.1412867798892
-900.0861660199967,26.285734680038544,700.8733869364156
-431.4592648865821,-190.12404847730878,708.623230155048
-420.8134276230925,111.78231098285347,731.3119158938068
-867.0259466790394,303.7918147379585,1041.8746462859388
-972.8204840592864,82.03494567461877,813.4102879168728
-374.60702686442363,-21.881580356186877,536.2238888917215
78.02491166708306,258.9946617856251,757.910193593123
161.92583603983013,366.2535116477085,711.7099111317322
-236.93718038269952,452.7927477782934,520.9862695211923
-742.0107784003714,360.07607082948823,525.5076912095365
-1168.778328991042,242.03372201516322,794.2365639642488
-1247.643180902755,44.34888570510827,1115.5389455114644
-742.6960276954925,-171.91905492701383,1170.9299302004254
-27.84590048589478,-129.71606002049631,894.9977821172369
171.27663371283774,19.035144519280287,830.7597395644792
-241.49327242228492,235.5075382521045,878.7914323443787
-497.5735852712191,187.82356870083058,945.7592551992782
-309.0708855725452,57.846869216297115,854.8311604880363
-577.3684183691679,244.79103465505554,1187.6940647417825
-1220.743067204397,548.1606868808411,1231.980339871414
-1369.417691056579,334.33129560043443,987.1505560002653
-821.5731162017611,-400.74949141653883,609.2987921461458
-348.66850555490413,-33.93544176655637,509.18101492354685
-321.3390913308827,300.9345699091943,339.7021408941892
-804.6448073501145,201.96805229104743,529.0267318605232
-1209.3936257539528,127.82142729678333,534.9879928415922
-1075.9943507721803,72.34376672971914,505.7772022046265
-363.5818551697063,10.782887122513806,736.4339504315949
-31.38105265304666,302.9260756731402,814.9928874794145
-470.1646331825853,669.4661275766955,748.3146640290008
-1086.487230603723,526.5355651522182,664.9967114152132
-1210.4439334533201,183.61621960608363,715.316647377035
-778.7909224862722,-106.47672752672933,671.7411144478492
-281.1061881478385,-58.09384448308037,463.17855740747353
-111.69155623989846,-1.5090984179102958,449.8274130309535
-408.40042216251226,149.52914603865747,637.1798728413883
-847.6523583486717,434.97422667271707,1018.1744020639057
-1196.5859901189501,709.4461411389211,1117.9862644226112
-1473.7958426169998,674.898155843229,905.945455379768
-1250.0089225168638,147.90269867895768,581.4075142887735
-692.0875120453978,-574.9343557687896,713.8666109221804
-46.93794516985923,-685.6378069983125,1014.3259930761269
208.7471256749247,-263.32437682592933,1303.2279116721818
60.673624530293225,27.03706158576069,1194.0672910728945
-43.6547648789342,511.37952307872723,751.3116099789429
-294.15855567395596,1006.6332539654217,533.9590991826975
-699.9158734124294,1154.4819076850913,1131.772827622073
-577.3296691530747,681.319308836351,1543.371079828484
-39.01760540041707,53.97266140833006,1090.4437295100774
-204.3388924862211,-366.72054167325234,630.2039942284063
-918.8948315683746,-230.32839960638958,544.4723733385
-1043.8834872255052,22.222675429427994,553.5223547286791
-362.6039473214605,169.36670524593006,731.9890074592241
-107.76972768478532,457.2958145748039,1135.1480882870299
-79.53531532174597,305.91690332580447,1536.3962209317149
135.03184063875025,550.981221925938,1008.9551477823723
6.2526550860895425,348.74600398709043,780.0798437794763
-682.9845054121439,495.1028128871735,533.7847277102783
-1215.5731060045991,401.58463899496775,855.7907134444486
-538.0726343858505,-162.80891028026903,1071.9256830823983
854.2325870710182,-181.09548112760223,684.6802934743262
993.0598114544724,103.63987702222472,630.8545731722862
-423.7369540057002,507.95123717069544,898.6901745244301
-1720.4448002121012,614.1332667118742,1247.826729821091
-1340.365976148838,68.1727195321542,1102.2928319048808
-161.16308831252266,-521.2024493583436,1129.7945781688957
610.2481479404282,-624.5170369086284,1071.0589243013671
381.95102303029074,-362.3816491870313,764.5587433017392
-341.78134225245117,23.72808247464731,473.76729056303634
-918.0158361927877,365.6212875956621,558.1732803760715
-1070.9977413285885,523.5692106886654,779.0529895530075
-1110.470955932964,397.18660296839397,888.7775132180716
-1242.6873601076823,-55.938368352087615,723.4917122564791
-1213.0442097964137,-540.2069004196134,678.4732808859295
-490.47941957753164,-1130.4166050588121,644.1924612380376
331.9145681756768,-413.0574661071824,1109.3492680986883
488.65922613736603,531.5760223929681,880.8808308647704
-628.3919585179445,993.0332988329349,450.50654402879684
-1956.906792839553,961.0519392453081,466.03580223623766
-2082.556224602693,344.50806340595415,634.9925815645506
-921.7306623566662,-551.4543702487598,973.296691530747
443.4613247133323,-720.0583277673824,1057.109206507829
1081.225494944757,-208.10674389317458,460.5436107131386
231.98339902005273,434.2859182289569,163.08321394156007
-1243.482738753805,772.3014485068807,752.0825154359542
-1801.6346050894037,802.9276052474597,1088.985535325519
-1359.2409232510593,304.99304043684646,1175.7837793742003
-1098.0202209725035,-270.7897192211408,1052.122794226367
-740.9268200659757,-1124.6144198069678,640.4215506824452
-51.2918274844111,-1245.8280860436541,670.783600923863
432.39230522145687,-480.53208791993194,577.3317085855008
179.17229634992583,389.6417227085702,315.502235727797
-684.6548005690017,799.774642716932,422.8426628869187
-1128.122243579612,446.94875416171686,813.7773857535449
-737.7096154140304,-61.661831512290135,958.702513090607
-240.89062014041497,-388.1009315107606,802.4116288436929
-380.8242366149501,-435.668653413755,553.2256173107025
-1048.4416186975168,-478.1041436168315,413.85590390194415
-1461.5286565748754,-298.4586989440839,238.30360010808994
-1504.1731886016123,-188.0723794567972,429.59828279789747
-910.2935253119059,-272.5211973507773,1023.5503459387253
-128.33332483569825,-153.061443000413,1223.241371926193
294.79077972600226,189.92724324820404,580.8578872499784
-42.346367006062216,427.6190136285072,472.9657936196357
-524.1851192813041,480.50761473082053,339.9825628527581
-889.4454273375719,444.92053861410375,366.0281543646404
-1492.5178322872746,256.10478603804563,785.4149990057767
-1763.1811066980063,-260.4090081730255,1195.1889789071704
-1183.370467998756,-959.5672324392123,1398.5407860992286
-196.3137258900848,-1001.7977596834802,1437.0146788148859
315.9213390913309,-88.68431115620524,1025.599975526811
-263.5915424737296,407.7355671916506,650.2516149755523
-1092.2384300449187,481.7394319160978,841.6696833271301
-1264.9783565233797,-22.66411057802614,962.446911024662
-856.8838492247609,-601.3348085227882,1076.4736173922797
-333.1229318880556,-642.2091132037955,860.7567314016511
-222.40418491533808,-66.03824955514881,491.5572596146493
-492.9389750832344,436.89639173418044,250.3311528401646
-711.298965497902,557.637929364258,148.53696216342993
-609.9972977520357,469.3162292933877,311.26225571423475
-385.94117257167335,519.9267843759083,542.0750205217889
-508.6772751143357,428.3379135586567,575.8673961036644
-814.2668495357742,129.16745269791417,599.7715835682931
-901.04265982777,-373.7229329077718,533.4502607924215
-944.0777431640777,-755.886056910362,592.9639581304524
-1105.6680925698379,-550.8894474667701,444.64113637174773
-1274.3189570342577,-369.71238904212964,653.4331295600435
-1170.4302692560661,-342.4003099937288,1200.420123079747
-885.6531027415072,-167.9238068045663,1490.5905686447463
-671.1547776253869,39.624438518760236,1524.5063298883922
-458.5041782871827,308.3754391152942,1047.9827464016766
-566.6644572815386,666.3070467488898,742.9550356135888
-951.2545058710162,493.693565080838,572.9418302886307
-554.8602224001062,-176.61280865535124,812.6934274191493
283.15479801971117,-377.5784799090414,1139.889768677377
708.6089541280663,17.31855424635324,1109.6143943140626
441.18021954490075,633.0275884221422,934.771813004441
-169.78172974461208,981.9051358007068,904.8196886806403
-703.3125481178589,974.9822824307997,959.6457505876115
-1479.0983669244852,642.7985091748967,1204.2440588784143
-2049.109532817017,-187.89086997088714,1265.2332855766242
-1092.228232882789,-1374.9649472551791,891.1045056160871
635.0384687941347,-986.423498340412,860.7220610504097
1280.2435082316592,569.3605869486522,1041.7420831782515
-146.1273727521631,1522.528080435215,809.1590910249678
-1217.1740604589745,935.1225953817054,810.7967552630104
-523.3438534055973,10.6861160539022,1016.6142362580496
196.32698220085354,-469.12860151019976,1209.5465831858994
-110.06612859641163,-261.71832379048914,772.5482198304213
-1286.0966792941526,322.60048028633634,615.5996186261365
-1387.7827800523116,227.32227621053065,257.2570653587107
-542.1464006566972,-307.8411078196938,428.7141888412455
226.9857698602479,-337.2313685101437,844.5697562368395
-40.50475952542408,-48.67890666027645,1290.919936981538
-946.4812142780665,189.9241840995651,1217.6737214033335
-1355.284424344705,-40.71216980314379,1027.8739426817517
-787.4727863235663,-438.7849061606155,711.9780964957454
301.1262765572342,-741.195005429989,733.2300020904183
645.9657477324062,-231.6071237374639,909.3594652608181
-225.66829651308043,539.5858932459097,717.0929930200426
-1643.527606267176,793.8888407356234,651.8260568083903
-1615.301861491947,282.2319548469661,571.5580753876197
-1311.4264300245243,129.2531088598043,1035.8073348187202
-1437.850846109528,2.977326610004436,1081.4294381873526
-1356.6202525837061,-494.0106968230742,527.0311472317254
-580.7416396016989,-1018.2722948203516,128.33740370055014
170.58322668801273,-853.0558345612417,657.0837136025045
269.3223475906656,-79.8203260032733,679.5021745448242
-26.978223960271862,510.58108528396554,676.9967318095376
-503.7754992785508,834.1951634860019,967.0335945506366
-882.3033349818747,723.8965395930313,847.9215634288978
-807.765138961827,-151.24430870888634,400.65975638979677
-750.66001131885,-639.3375923480496,815.246796816446
-1093.7374128779961,-189.61011150596792,1047.9929435638064
-1059.8114544722205,-242.5140083514758,-73.76249789683531
-352.7555281365197,-858.6663131650463,5.625713164026452
489.8665701335319,-469.47428530639934,566.3809761743307
531.8717400947318,318.1779710706511,1282.5582640351192
-377.4224633284557,600.4221625121729,1326.8547363268804
-1339.4788230435472,619.775356518281,1347.6977357201492
-1611.4473342068904,262.0201597895306,909.2014092478064
-1259.9409584312687,-824.0489871668716,50.78951527789817
-542.4727098448502,-1327.5889320002245,184.8980028857969
-52.857601729438706,-808.9582069310112,202.2566319793202
-55.453085406331425,549.0315245267242,625.4205054733269
-532.4896881197964,1483.7584700177943,893.7690240805985
-1019.4368107355725,1189.794680140517,907.090596686942
-822.1716896187792,49.0739447211841,721.5868823706363
-166.53189417385144,-780.4245078594628,694.9600526173566
209.1529727276899,-700.7377646800895,849.4541968970036
-48.619049318574646,159.69775611447338,791.6699382561834
-986.704940015194,982.4843346096783,1116.283338346938
-1947.7905298955302,1224.077539220835,896.9933667460347
-2117.083815574126,-812.0102175564541,210.59281202041475
-923.774173647474,-2156.771170583227,578.3707994065252
750.0257478343779,-1501.1038428005488,950.5223496300981
1577.8578821513975,-218.41811423880736,1900.5062890997438
853.6686840052414,1433.2825174753868,1224.7505519214003
-692.5606603682196,1943.1508211264809,1070.3553201144123
-1418.2620976582218,1121.7388200863702,304.80337322123256
-1128.8258477665668,-321.9947688558275,62.83358741262308
-497.3879969204571,-1080.950171567253,545.8071818612881
-465.1415111174561,-404.7518775524772,1336.7867722412855
-1316.8309259533073,328.71673813177796,838.8216159442828
-2078.9770206951407,-132.59675832215896,503.2177145100519
-1617.382082566422,-917.4743668836965,536.3278999454452
-625.4623138380589,-513.3700091264602,734.2803097897855
-26.972513549479185,240.24921864245184,732.8527070916165
99.08511061371621,591.4190880677908,741.4060866860754
-219.69785808609467,653.0782683179273,865.9358700473659
-648.9698316958392,677.1741624305956,588.6250656442312
-897.307439339632,359.85581212748497,-65.51115824466052
-852.5724890762901,-478.16328715718424,-713.5015525179343
-278.04703950890473,-892.6177644761465,167.76880994019368
547.5753697745918,-322.1956529497841,645.2417492211918
218.66080669749613,86.8571836457914,1961.5363044464727
-1363.6359001289943,1450.2505952593394,2035.2719838069067
-2191.4415218244767,1239.0673675516105,198.63561970703557
-2126.516190544172,-992.895637144183,309.1769360586949
-325.4536462502486,-1938.011451413072,904.4893006276355
1133.9652174799755,-776.2773220212816,1432.629899099081
1172.755222221656,1027.9963086273092,1179.8728413882418
-396.1893205121015,1847.09355386396,973.0774525449569
-1805.784850076224,1502.8883461732603,1047.3199308632409
-1861.2676092243532,280.43827402833796,587.5033778099556
-1274.1761967644406,-1117.0175340202823,589.237915088231
-410.489820682904,-1277.031402160779,759.6997955468994
-176.80553501960406,-126.35405566630807,708.297940683108
-351.76232454507914,647.9725492395468,612.7984581890861
-556.8598858937559,751.7347922073287,785.9840006526184
-992.8721836712845,693.1643323663026,775.7266752662736
-1372.833740370055,142.1260063324377,261.69283088516465
-1015.9238883818633,-1140.2976551625684,377.3306888692877
58.8545527779619,-978.6338861894736,793.1954337107984
755.2120244935836,-318.9335807844677,1189.937440410334
446.5633014332112,617.0618916755468,1315.5970693356041
-484.6027950421398,1059.0058786639681,1029.3525311905698
-1220.1822232872591,804.9323673221744,528.6178256591191
-1636.970831017728,-259.8858937557678,502.4192767152902
-1474.060968832374,-975.195403119312,1127.3676535820082
-952.9533530818375,-692.2129371395941,1212.707703446131
-707.1140501598406,-333.28710619834504,897.2839858667335
-582.2987462589163,-260.6098922669821,482.89782953404074
-192.5713673884558,-215.14686462757416,716.2109384958167
309.6786364354801,313.38020628858993,984.9000423182229
392.9690567115172,533.4777931301719,1008.9531083499464
19.02841439227463,623.2801211422861,1203.2039483411768
-703.1922216047275,926.8006913675925,1195.290950528468
-1439.8698842112242,749.6882217678822,647.177170593424
-2014.5105617106763,-316.9889819663188,-154.52983434710123
-1812.5965543789166,-1134.8829620716556,282.9620716554583
-575.9805846033049,-762.0685963096472,657.3682144259253
411.54318753091013,176.8636588437438,951.5655193159746
742.6939882630664,828.0248606812726,1370.3354356482591
-157.6909546073328,1029.4137141633485,1466.0663937226273
-1406.9432476941668,739.2626432063958,376.9064869246889
-1601.5152982924856,-450.31177823211806,9.090627278428414
-795.8232423916425,-956.3826587060821,799.9408564596473
29.049981390179116,-233.66491105525333,1002.1648575201523
83.49018268215957,120.34078915837723,833.0275884221422
-133.94176400707684,218.14381057751632,762.722234402166
-318.0372502332601,343.37107982848374,759.5427592501009
-631.3165046167652,492.2455680584094,691.5531807497974
-1122.3098611656378,248.4599735893501,688.9457663932128
-1325.0600357920393,-424.4283215980993,978.6012552706583
-1021.1948014867463,-745.4635374975146,1255.0361234468448
-791.826974552982,-214.76753019634637,1095.766648141822
-959.808905181688,89.90980610096211,409.3426399433039
-796.8592740640281,-281.92909913171167,75.52018273314538
-186.510174218515,-306.43593887821027,465.4331499543677
216.9884721082123,181.74096149041725,893.6894862159861
-71.24461462375022,570.482274782928,1276.6031213513281
-900.0249830472181,851.9994085645965,1310.3251365145081
-1428.0717676270694,808.5829513646354,753.1195668245529
-1585.781077126236,-206.05507487266294,79.14537584190322
-1291.5011752229357,-1348.217790988768,248.31619360332024
-389.37863592562195,-1259.4005088383904,587.2729219458225
568.4091917219438,-473.5623276042278,610.7427103037226
618.7903106565444,262.87366225979315,801.3195127795935
-95.19978789902771,846.5153747712012,973.1121228961981
-794.8891823405547,1059.8930317692589,855.9467300250341
-1155.47103241168,716.3995859952176,635.8501628996652
-1176.2120601836511,-85.22665742123968,536.2045142836749
-898.4434032008893,-778.5706637842688,691.8397210056442
-392.3449903891747,-915.3176670932481,986.3786308270409
-70.4186444912381,-426.8022209419119,950.3071895091598
-363.20557988711744,238.72984148511475,700.349252802945
-748.1749629078229,527.5807742705206,646.5133353387753
-854.0541367337471,640.0422162512174,1013.4622934437348
-687.9036164235495,690.9495087517145,796.0006730127006
-961.4057807712114,526.0277464781552,717.8924505310173
-1341.2225377677394,161.51794955463896,725.2068749267079
-1310.9063747559057,-409.41402007821233,939.5165525434272
-748.3432160829642,-600.1366419725391,874.018140751429
-151.41868018130555,-230.23560543100857,795.3704883930803
-115.85505753748733,191.6617805264795,845.4997374230753
-372.63081684367245,399.6849076901899,950.8415208047601
-504.4209796413658,432.39434465388285,1031.1778232118002
-298.6973125379207,340.37515359475464,873.6561414958219
-248.12754610391931,227.11527381929614,800.2284164317072
-580.7916056961349,384.82968189952743,837.8834770283431
-1113.8462165979208,511.20005302524316,656.7890156169539
-1541.9230828060554,362.80687084784313,560.6114218413016
-1314.4345928528091,-285.72244344398956,923.3479322704492
-590.4819688680641,-833.1040671381155,920.3397694421643
-259.2455119740177,-593.400396669607,759.6590068983802
-557.542076040238,-126.08383086986892,836.0306526693622
-834.5479852956923,48.085941682429784,1031.4531465893044
-805.9775764404768,127.38498875762876,839.3039417130213
-720.215364064181,357.69605318839774,710.2986238929707
-354.82963091371676,360.4258334905396,472.4365609051002
129.545767412929,51.171602942900996,64.72546690256102
460.8087369285128,-9.349859534091664,77.7409207017687
189.89971091045365,302.51309060688413,531.811576838166
-672.8209939173928,475.47735465220035,942.163735832318
-1539.0066944369382,447.62788515956015,960.6807625437842
-1995.9721209587374,361.748405418772,907.0294137141635
-1443.1839619034024,-65.00976378273927,830.407937471002
-197.56389796719577,-417.09452259436205,1058.261485828494
978.7215817837897,-249.15032146553617,1401.059485145284
1536.6409528228296,210.62850208786898,956.530517556964
938.0308260211185,537.3149852396078,620.7175742990727
-925.0090499813903,749.3078676204414,1055.2023371895602
-2685.075943364962,1273.044311768035,1395.9812984046541
-3091.6571918035215,965.6019129876156,841.4851146925812
-1555.5362942493107,-109.76735174600908,487.43454696557956
354.9672926024688,-795.7059750271501,742.068902224511
1853.0283022234914,-287.1531052907976,519.4668923638552
1739.8907883935904,186.50609535366308,602.5156398974167
321.44412210081936,407.89770206951414,749.2803352826909
-785.1682276822361,848.9259838986811,1068.7339713357774
-1226.3209148893864,1071.109910112016,1296.8546853410699
-1371.9975730754134,804.9598996599248,1260.2468732951622
-1516.0732768070648,420.3688313542342,961.1161813667259
-1302.7792365384714,-244.4269959670224,362.1624102012411
-839.7730111709913,-692.9644679885588,366.6858713220111
-260.8107763609388,-557.1668204738622,484.78940310911474
203.21108635466751,-333.3544074684016,824.578219881407
518.7520712985577,179.8432696180653,1377.0247740053944
595.4683811495262,682.327808170986,1819.9589054366172
400.35995982318127,1092.5647392330716,1662.5861022877336
-247.9021888208512,1303.76836126506,918.2626075163282
-989.2623882773426,809.6791462935867,-33.08448858682629
-1065.430090805729,-20.928247668673812,-392.48877037520464
-484.3162547862931,-858.6632540164073,321.5491528707561
-15.708422346061091,-338.20315806111165,954.7521324815306
-470.0341095073242,253.53306174891532,1393.3606277373008
-1629.5370998251187,562.8180877261858,1214.0333345230024
-2226.7033084692534,400.280421958569,687.5895438299523
-1196.3922440384843,-260.08983699836335,434.4521319716723
228.99970938087932,-528.8248280503536,1053.2546792227724
1320.777227697532,79.10366944879242,1200.9911641590147
1064.5225433761784,703.3461987528872,1124.4002794022424
-670.3899904656535,718.3910917591636,851.1153146079448
-2170.3333962158335,513.3394176400708,401.5550672247914
-2159.5244043582675,-134.86562689603485,180.2001702926076
-1044.7604431686661,-457.8709345189234,515.8825898752377
-37.922736102542665,-253.83183859931785,852.0942421724035
131.25073292102812,-5.209138696700709,681.1061881478385
-547.566192328675,-22.29946006026523,769.1117761926857
-1180.5050654402883,-122.93086833934119,642.231546960481
-969.9673180953743,69.17214339249388,676.1340518933581
-324.6225775366716,154.47884853645232,830.7240494970251
139.12192236900472,94.30916775861279,998.7824588417045
223.47794608760384,79.97083611630885,768.542774545844
-45.34484253032382,-31.703690862832875,592.2093681328487
-551.8214680854319,-64.97519540311932,321.78572703216696
-1037.2757261654083,-30.310350629419833,310.4719756491769
-1505.1827076524605,-27.992433705699703,589.9527361535285
-1504.3465403578184,-208.17200573080513,1206.7423636002102
-553.8731371059434,-462.1455848837269,900.0137661688752
334.46181927569563,-274.51066368229726,598.7171970040738
378.4778696088879,-98.89829860349866,-56.6273905971968
-528.2853981736883,26.639678177563184,204.0900817302545
-1545.8999760366692,144.67019828381763,824.2376346662725
-1694.5542055645915,-118.36151998898708,701.2353861920228
-1589.3602810337884,-415.24883624887195,907.8920936303429
-947.3194210051344,-811.6390408549302,844.2791371161408
-159.38470323708913,-1421.6985412959575,811.044546302764
108.12356921068867,-96.72151040365468,810.581595142072
167.52407804907895,936.3544125669827,866.8556540714719
-191.79230420174068,626.8195561175326,120.76397138676309
-749.5668755385377,217.0353790540093,-329.69056711517186
-1196.769539037286,336.54000091774463,522.6993927589953
-1402.966354463553,501.0691724493074,1429.570750460147
-1281.3448017416754,341.47746682098375,1859.707443418497
-790.3810169629793,254.87806743383317,1262.9695155838133
140.32110863546677,14.382791269189786,716.4974787516635
544.5906604192054,-121.12902979100917,628.8202393273953
-815.1254505871017,56.696221441572824,1145.5287993351453
-2479.613323612039,-44.26210785538385,1372.1097418588408
-2530.1198676408358,-216.89057935176643,1061.8916755466955
-1113.1732038973555,4.585939133139248,1113.7646393008827
263.54157637929364,407.32258212539455,634.6010105387671
469.9382561833043,759.5896661958977,404.95174193022086
-860.9351817389222,463.4100329878196,295.74931296620156
-1863.1744785426217,-254.97596019027907,420.5217887861809
-1813.6060734297646,-571.0502567135567,1026.7216633610867
-564.5985122340453,-452.25433761784103,699.6640035078238
248.54562975124023,-132.2480153773205,424.26720643644876
268.8349232408621,154.6369045494639,506.0198946633153
-179.38337760601226,572.003691372691,490.04909933565494
-690.6374755905433,922.8513304747289,335.9964921762274
-1118.5878969882683,876.7672956616175,0.07352082515435955
-1797.453768616194,619.3542137223211,469.57727664391007
-2365.0176155975796,193.0343185491478,1184.6451132649786
-1805.366766428903,-870.2115401283825,1326.130737815666
-382.261016759036,-1539.4145809221295,1294.7540699423353
905.0256713556619,-1011.6166070982447,876.6245353918006
1397.194760698098,-31.906002559487696,539.249386895627
359.0869461028996,925.8676510327177,728.4740456730892
-978.7695084457996,1427.6026981690998,1142.3778762370434
-1481.3723340794259,1590.3901944088961,1165.6885888657189
-1123.0950426496306,955.9880285316598,631.603044872612
-582.5190049609195,129.2633060219341,-48.24420163868396
-463.03171827280477,-499.2724324820403,-138.52538838441265
-797.2518648060245,-958.7331045769964,536.9784788893252
-857.9158020322946,-806.2743138584533,1088.9243523527402
-639.0357563490081,-91.71827280467848,1144.7436178511523
-454.1775223955174,634.7335736464543,772.2188514936294
-490.7221120362204,1047.7584088348215,632.9164393549275
-906.2350547842537,796.2505034848803,698.1833755665799
-1051.0928808512592,144.11955152880955,764.9329791519021
-963.0689379145786,-375.2086594300806,744.4550381628793
-861.6408253583028,-496.3876553155257,695.362840521483
-803.3946352730036,-517.027731182412,602.1148914257162
-554.1382633213177,-428.45110205829724,774.3082500140212
-71.2501210913003,-75.45349329281662,1298.4046539847961
415.0214395333779,348.65626896034837,1127.6429769595125
687.6986534647408,745.9580998608088,800.7219590787885
433.94839216246123,882.238073144244,674.7972039381441
-74.49975271881837,615.6373481260166,-160.0138681404965
-806.4150346958442,371.3245603748477,-1.3944823155715766
-1876.1656630959608,223.75326946510788,724.8326390765451
-2212.53945027099,110.32717594693398,1155.8075387619626
-1428.3980768152223,-858.8457832185303,1198.299113356753
193.5972018987116,-965.2562291914162,677.4301112000531
1275.766954056686,-323.11237782525126,318.6348039340652
642.460983108401,489.6891395124737,659.6217872566066
-1547.0216638709448,1155.5832011951074,1805.886821697522
-3162.007413336869,1862.103776518995,1516.3689945088283
-2470.1401599934743,681.040926310208,718.3176721918292
-620.6655687722107,-813.7661688752021,-398.84976011176093
1083.1323642630257,-1147.190936762299,153.69570648488528
1359.4244721693954,-344.10731493425385,1069.5599414682895
54.52748899981136,11.916709579723964,797.6383372507432
-1254.750602907211,453.7961485318636,603.8524878526307
-1558.340513835,793.3371742644023,664.8784243345077
-1178.5574074735002,637.4806891242168,875.1724595045199
-694.898869644578,178.55128917622227,1033.1050868543284
-752.2487291786697,-169.45644027267213,1005.9439258054485
-1182.0448369218848,-311.4294891731631,1192.2929848623128
-1164.6892669770004,-556.479531746315,632.157770492472
-627.1805356569267,-716.7360923455003,59.90557427867825
-82.12406887163304,-517.5651216266514,742.4329409125442
445.2978336129056,-144.05021082632706,1435.8827938184806
299.09704129340804,529.1093288737745,1301.9124777574402
-590.5441715570557,842.9463680257785,573.2426465714593
-1527.2187750149135,682.0514650772691,363.5237313455666
-1666.2060948438052,12.953557025079922,269.50793594142755
-994.9442470160556,-457.45387058781546,175.18520595718215
-414.7277612640403,-221.80459178210705,642.2621384468704
-28.341788480265947,-176.0601224679172,1334.7065511668104
118.88565412245774,-31.234927319726925,1218.6832404541817
-112.71433160151531,246.39300882564385,480.37199247449445
-684.3917137860534,461.98548943828933,722.2578556387758
-1048.054126536585,504.1629914394824,1222.9456542244295
-639.1152942136204,200.76988574079834,971.0675918891773
-114.53758419031985,64.4257723075668,465.26081791437446
-302.74864505208205,68.90191859605473,368.2348202495246
-1024.4578933682758,-142.0790993866407,369.9102139874473
-1595.8762676347174,-244.09354876537864,573.625040151326
-1389.4041288309465,-238.25771287850594,973.0845905584476
-541.2531292541287,-253.4270112627656,887.7241463700653
91.43417986774281,-204.30626156740578,17.921002584980602
-161.46696374399008,-218.4293311171501,-52.538124639912716
-1188.8463440624475,-33.211035368856855,716.3720536574673
-1366.7664289028364,-43.4698903295213,1141.5213146181418
-519.2333773510833,-286.7696919947179,640.9161130457394
158.49755013179833,-81.7145508405011,371.727348278974
22.207991515961112,26.231791692372013,640.1207343996167
-829.6951558381304,-15.476334935987316,851.2040299184738
-1279.5297068825748,-67.6744861904932,1107.5953562123664
-794.002029235264,-238.60849525577035,593.4666782234505
-349.7901933891799,-264.93450872622157,635.530991725003
-234.32568716126306,-15.711175579836132,915.0678366210685
-274.6656605466699,39.94544518260569,184.29637032013994
-933.7959445886212,36.390000662815545,504.10384789912973
-1673.007601984368,42.38960297349249,956.1154930582819
-1710.2578352444516,11.241555475111278,1332.4223868497397
-762.7487470237033,-323.4539827565989,1512.5858473586802
470.11364737193645,-482.77852273712233,1221.53844585052
1078.176543467953,-106.46856979702551,573.9686845150995
133.18615429326022,18.447889952226298,732.0756833373273
-1504.7646240051397,297.7540750409162,1534.6932948560418
-2166.1321654183644,417.09554231057496,1320.308158239562
-1807.8446768264394,-285.81625733558354,912.0321414550332
-653.2455017768556,-918.8642400819853,794.1009417079227
587.527850999067,-715.0545803102998,878.7180127770441
1029.7196290272418,86.55065695217021,914.0338443811088
-100.15356926167449,794.0713699377465,729.8883920604897
-1333.5338775218859,1011.0730983567275,549.7718384973463
-1706.2299562031887,542.0821585352797,561.4700228926291
-1054.529324488995,-202.4452794787211,514.8740905406027
-329.26432573814714,-72.66885225841649,521.3758011145499
-549.2497437963016,442.57519132425455,402.5288962081853
-1379.400712781633,555.694350262322,209.17948534922732
-1569.3024631245125,229.49121259553468,-90.83581039396736
-880.6004089062016,-211.50035944996512,89.72676704073258
24.156159340855442,-148.0617744081822,621.115263622134
303.3370213069703,217.23524343175296,1043.9956560089327
-477.5208659430081,684.3111562052281,1533.0821432395367
-1673.6602203606737,921.9917097071886,1533.9794935069572
-2490.2897523619176,620.1740655575554,816.3368734481195
-2283.1547980197115,-695.9644730871399,62.50279147313304
-855.9426511601821,-1567.8136774535649,302.67624520096064
623.0680201699868,-1082.112648050048,535.1215756654924
1070.9059668694204,-198.985382368087,605.5696899552855
66.47509598078855,368.3398510194613,1291.113683062004
-998.8110108956679,524.7398449011641,972.4360510469936
-1172.887785329343,612.7423737973722,710.5076657166311
