acc_x[mg],acc_y[mg],acc_z[mg]
-932.8496479429776,307.83295008999,142.13722321078046
-928.3414825654022,304.10588733155566,161.84017987794
-924.4604426588082,307.9451188734175,161.88504739131102
-924.5970846313472,307.9104485221763,157.959139971346
-931.5127999877636,304.30677142551235,181.4146523022643
-939.9020052719329,304.1956223582977,161.66682812173374
-932.4958064170743,319.5076810123743,149.9523282670433
-936.4584236207064,323.37240545956064,145.95504071216982
-929.3234692784999,319.30679691841766,130.376836126506
-924.2432431054439,319.5851794445606,165.77424502760886
-940.5026181213768,315.6307199706322,141.99548265717652
-932.549851376362,311.77007438829776,149.97680145615476
-936.429871566743,307.93186256264886,149.93193394278373
-931.8676612298799,311.94138671207804,169.61041742083182
-924.7061942661359,311.7456011991863,154.01895652439927
-943.6464032059878,300.39004145146407,165.54786802832774
-920.4172678743507,315.686804362346,165.8446054463043
-940.365976148838,315.6643706056605,145.92240979335452
-924.4889947127716,323.38566177032936,157.9081541606971
-935.9393880683008,319.6402441200614,161.6739661352246
-935.9944527438015,311.9026374959849,161.69945904054904
-940.1202245415101,311.86388827989174,153.78850066026627
-940.4200211081256,288.61741777263387,149.93703252384864
-924.7061942661359,292.43625499023625,158.0091060657819
-928.723876145269,307.87169930608314,150.04818159106324
-924.1606460921927,311.88224317172535,169.7256453528983
-928.1507956335753,311.87714459066046,165.74161410879353
-932.3591644445352,319.5423513636156,153.87823568700833
-936.2667169726666,311.8343165097154,153.84560476819303
-927.9601087017484,319.64942156597823,169.64202862343413
-951.7347922073288,284.9066704736072,157.62977163455412
-936.484936242244,300.1942559385723,149.95742684810818
-932.3316321067848,304.10180846670374,157.85512891762224
-928.259905268364,296.4029510587204,165.79158020322947
-920.2255612263109,323.4580616214508,169.7450199609449
-935.9944527438015,331.21198370493494,157.7093094991664
-932.9312252400158,315.53690607903826,138.184803169278
-924.9794782112139,311.67728021291674,146.16612196825625
-940.1742695007981,304.12628165581526,153.81297384937773
-924.2972880647318,311.8475728204841,165.79871821672032
-943.5107809496618,319.7340580116554,165.4846456231231
-948.4268328124285,304.04980293984187,137.99207680502516
-936.0484977030894,323.47437708085846,157.73480240449086
-940.0386472444719,323.4702982160065,153.7497514441731
-936.484936242244,319.5036021475224,145.96727730672555
-932.0043032024188,311.9077360770498,165.6834902846538
-928.5321694972291,296.33463007245086,157.93874564708645
-928.2874376061143,311.8434939556322,161.81468697261553
-921.1524832639077,307.77788541448916,146.23648238695174
-916.8084921966217,319.4577149179384,158.0366384035323
-917.3540403705649,300.0107070202363,146.32009911641592
-932.2225224719962,300.26665578969374,161.79531236456896
-916.7269148995834,311.75375892889014,161.98803872882178
-932.140945174958,311.87306572580854,161.7565631484758
-932.3040997690345,288.66126556979196,161.83304186444914
-931.1589584618603,315.98150234789665,189.22975735852714
-928.4230598624405,311.8088236043909,157.88775983643754
-923.9434465388284,323.5223037428684,173.61382327298315
-925.0070105489643,327.1178231098286,142.18922873764234
-924.8703685764252,307.8421275359068,150.10528569898997
-944.2735286769694,288.6469895428103,149.87992841592185
-940.0111149067217,308.0297553190947,157.72766439100002
-928.9410756986332,296.23163873494013,146.1589839547654
-928.4230598624405,311.8088236043909,157.88775983643754
-941.1287238761454,303.8876680619784,126.32754304477065
-932.4672543631109,304.0671381154625,153.92922149765724
-940.1202245415101,311.86388827989174,153.78850066026627
-932.1674577964952,308.0042624137703,161.7698194592445
-928.5597018349794,311.77517296936264,153.9618524164725
-928.5872341727298,307.90636965732443,153.97408901102824
-932.2225224719962,300.26665578969374,161.79531236456896
-932.4672543631109,304.0671381154625,153.92922149765724
-936.5389812015317,292.4566493144958,149.98291975343264
-948.071971570312,296.41416793706316,149.7963116864577
-932.3856770660726,296.36420184262727,157.8806218229467
-928.8054534423072,296.26630908618137,150.0859110909434
-940.1202245415101,311.86388827989174,153.78850066026627
-928.2323729306136,300.27175437075863,165.7793436086737
-932.3856770660726,296.36420184262727,157.8806218229467
-936.2667169726666,311.8343165097154,153.84560476819303
-940.2018018385485,300.2584980599899,153.82623016014645
-952.1987630842337,296.37643843718297,141.88535330617492
-931.8951935676301,308.07258340003983,169.62265401538752
-928.2048405928631,304.14055768279695,165.76608729790502
-928.0957309580745,300.30540500578695,169.70525102863874
-940.310911473337,304.092631020787,149.8870664294127
-936.6480908363204,296.2907822752928,146.0437560226989
-936.0484977030894,304.16503087190836,161.7239322296605
-936.5940458770326,304.02838889936936,146.01826311737446
-935.7487011364739,308.1021551702162,169.5645301912478
-936.020965365339,308.0338341839466,161.71169563510477
-932.4947867008613,300.19833480342425,153.94145809221294
-928.8594984015949,307.8380486710549,146.12125445488522
-928.6963438075185,311.7405026181214,150.03492528029452
-916.290476360429,315.7255535784392,173.75556382658706
-925.6066036821953,299.93422830426294,130.4981823558504
-924.3513330240196,304.1099661964076,165.82421112204474
-928.5872341727298,307.90636965732443,153.97408901102824
-932.6864933489012,311.7364237532695,146.05089403618973
-943.8105775162774,315.7969337133476,157.6440476615358
-959.11447844065,312.08108783325605,161.35173581192356
-947.6365527473705,300.3859625866122,161.56383678422299
-936.0760300408397,319.60659348503316,157.74703899904657
-932.4132094038231,311.80474473953905,153.90372859233275
-932.6579412949377,296.2958808563577,150.02778726680367
-939.711318340106,292.6575334084525,169.55739217775695
-927.8234667292093,300.37372599205645,177.55910530099476
-924.6521493068481,300.1728418980998,157.98361316045748
-928.39552752469,296.36828070747913,161.86567278326444
-916.0182121315638,315.7938745647087,181.60839838273012
-924.7337266038863,307.87679788714803,154.032212835168
-943.5923582467,308.1276480755406,165.5223751230033
-928.3690149031524,319.54643022846744,157.86328664732608
-940.0386472444719,304.1609520070565,157.73990098555572
-940.3384438110875,319.5331739176988,145.9101731987988
-939.6297410430678,304.2639433445672,169.51966267787677
-912.1912171842577,311.8954994824941,181.67875880142557
-928.9410756986332,296.23163873494013,146.1589839547654
-940.1742695007981,304.12628165581526,153.81297384937773
-928.4505922001908,307.9400202923527,157.90101614720626
-924.5430396720594,315.64805514625283,157.93364706602154
-936.1300750001277,311.8689868609566,157.77253190437105
-936.484936242244,300.1942559385723,149.95742684810818
-932.1949901342457,304.135459101732,161.78205605380026
-932.7680706459394,319.43936002610474,142.0984739946873
-939.302412138702,312.0698709549133,177.34700432869533
-925.11510046754,311.6426098616755,142.24021454829122
-936.1851396756284,304.1313802368801,157.79802480969548
-939.8204279748948,296.49166636924946,165.61822844702323
-939.711318340106,292.6575334084525,169.55739217775695
-940.2018018385485,300.2584980599899,153.82623016014645
-928.1507956335753,311.87714459066046,165.74161410879353
-923.9424268226153,304.2129575339183,177.6039728143658
-931.7320389735537,311.97605706331933,173.53632484079682
-932.1674577964952,308.0042624137703,161.7698194592445
-931.8951935676301,308.07258340003983,169.62265401538752
-924.2697557269813,315.7163761325223,165.78648162216456
-931.8951935676301,308.07258340003983,169.62265401538752
-936.5114488637813,296.32545262653406,149.96966344266392
-924.5695522935968,292.4699056252645,161.9360332019599
-936.0760300408397,300.29622755987015,161.73718854042923
-935.7762334742243,304.2333518581779,169.5777865020165
-931.8676612298799,292.63204050312805,173.59954724600146
-913.0640942625669,303.952929899609,158.14472832210797
-924.4329103210578,292.50457597650575,165.86194062192493
-940.310911473337,304.092631020787,149.8870664294127
-935.9393880683008,300.3308979111114,165.66309596039426
-924.787771563174,300.13919126307155,154.05770574049245
-921.2891252364468,307.7442347794609,142.3105749669867
-944.4091509332955,288.613338907782,145.9530012797439
-936.2667169726666,311.8343165097154,153.84560476819303
-912.9549846277782,300.117777222599,162.0838920528417
-928.8329857800575,311.70685198309315,146.1090178603295
-928.2874376061143,311.8434939556322,161.81468697261553
-932.9587575777663,311.668102767,138.1980594800467
-932.3581447283221,300.2330051546655,157.86838522839096
-936.3482942697049,300.2279065736006,153.8843539842862
-936.3207619319544,304.09670988563886,153.87109767351748
-936.1300750001277,311.8689868609566,157.77253190437105
-943.2650293423342,315.9335756858867,173.35073649003482
-935.4489045698583,312.03927946852394,177.4051281528351
-936.020965365339,308.0338341839466,161.71169563510477
-935.7211687987234,311.97095848225445,169.55229359669207
-924.7337266038863,307.87679788714803,154.032212835168
-928.1783279713258,308.0083412786222,165.7538507033493
-908.5283965472411,304.0936507369999,177.83544839471176
-935.8578107712625,292.6279616382761,169.61551600189668
-924.2972880647318,292.538226611534,169.78886775810295
-928.0141536610362,311.9118149419017,169.66752152875856
-943.5097612334489,300.42471180270536,169.47479516450574
-935.3663075566071,304.33634319568864,181.35754819433754
-935.8853431090128,308.06850453518786,165.63862277128277
-939.6837860023556,296.5263367204907,169.54515558320122
-938.9210382750482,327.61238547312286,185.14987279040247
-920.9893286698313,311.6813590777687,150.151172928574
-909.6194928951275,303.82036679192186,146.4230904539267
-916.3995859952176,319.55968653923617,169.81640009585334
-927.9876410394988,315.78061825393996,169.65528493420283
-947.5825077880827,327.43291541963873,157.5481943375159
-924.2157107676934,323.4539827565989,165.7609887168401
-916.3455410359298,327.2972931633127,169.79090719052888
-917.1623337225251,288.473637786604,154.21066317243913
-917.953633503796,292.13645842362075,130.63890319324133
-914.1276582727028,307.5474295503562,126.72013378676715
-947.472378437081,284.9790703247287,169.4676571510149
-935.8567910550494,273.3186154293261,173.60464582706635
-936.9754197406862,269.17550845599675,142.20554419705
-945.118873417528,303.8825694809135,122.3435118006659
-935.7487011364739,327.4115013791662,165.57540036607813
-936.2402043511293,335.0124660307037,149.84321863225466
-943.5923582467,327.43699428449065,161.53324529783364
-947.663065368908,296.51715927457394,161.5760733787787
-928.8870307393454,303.9692453590166,146.13349104944095
-928.8054534423072,315.5756552951314,146.09576154956076
-935.966920406051,315.77144080802316,161.68620272978032
-940.638240377703,296.2867034104409,142.05870506238114
-929.0501853334218,300.0657716957371,142.21982022403168
-928.8054534423072,315.5756552951314,146.09576154956076
-928.1507956335753,311.87714459066046,165.74161410879353
-935.4489045698583,331.34862567747405,173.41599832766545
-944.1103740828928,311.8598094150398,149.80344969994854
-913.2007362351059,323.22760575731775,150.22867136076033
-932.9587575777663,311.668102767,138.1980594800467
-936.2116522971659,300.2625769248419,157.8102614042512
-936.0760300408397,300.29622755987015,161.73718854042923
-932.4672543631109,304.0671381154625,153.92922149765724
-936.3482942697049,280.91856036465055,157.87348380945585
-940.1742695007981,284.81693544686516,157.80312339076036
-929.4050465755381,288.3920604895658,134.4047151677688
-917.4080853298528,292.27412011237277,146.34559202174037
-932.8221156052272,292.3924071930782,146.11411644139437
-943.8646224755652,308.0593270892711,157.66954056686026
-932.1674577964952,308.0042624137703,161.7698194592445
-944.4642156087962,300.1850784926555,141.98834464368568
-940.1202245415101,311.86388827989174,153.78850066026627
-936.2942493104171,307.9655131976771,153.85886107896175
-932.276567431284,311.8383953745673,157.83065572851078
-939.5206314082792,319.73813687650727,169.46867686722788
-923.4804953781364,350.6722479134057,181.37896223481007
-930.8591618952447,339.22797285515446,193.0812254949448
-925.6066036821953,338.55292072216304,122.5189029892981
-920.7445967787166,365.8089153788501,146.0468151713378
-906.0678213253253,396.400401768188,118.69190804199192
-939.1943222201263,385.4721031137035,165.3276093263245
-921.2085676556216,357.9693371334758,134.29254638434125
-900.9590430983059,342.61954897951904,166.04446982404798
-886.4729545767414,346.12941218458906,138.7772582890182
-875.9199114886329,299.44476452203355,119.46995151249409
-903.4655055498057,237.7193027180536,115.34112056614646
-918.4696099075629,199.3218887183697,134.86868604467378
-933.1749374149175,203.4802914348937,154.25757011823612
-937.955367021358,226.44939913222152,122.71162935355092
-938.2021383448988,288.1779200848404,102.87712929491724
-924.5705720098099,350.3979442521147,149.966604294025
-948.1545685835633,323.4274701350614,141.85476181978555
-975.0189922144667,261.87332065486174,157.358527121902
-974.963927538966,269.6099075627253,157.33303421657754
-971.274594280412,284.9872280544325,149.48733767392537
-948.3727878531405,311.7874095639184,137.9665838997007
-953.1807497973315,311.57734802404497,110.42302927095392
-952.9349981900039,288.46751948932615,122.27824996303531
-929.1592949682105,303.9009243727471,138.28065649329795
-929.460111251039,319.27314628338934,126.45092870654098
-905.6303630699578,342.44313807467387,142.42784233147918
-920.1439839292725,335.0644715575656,169.7072904610647
-939.3289247602394,308.201067642875,177.36026063946406
-934.8758240581647,296.7353785441512,197.08871021194804
-934.5760274915492,300.672502842459,204.9293081735353
-929.9587524791853,312.4206533321777,224.58127903004595
-949.8258834566342,304.6952833026569,208.61150341859866
-957.914272457975,289.2108926085871,200.693407024825
-965.6488199334127,304.71159876206457,196.6002661459316
-942.8010584654293,323.77417364747396,185.10500527703144
-962.0135316341463,312.35029291348224,188.78006250860386
-946.9818949386388,335.3071640162543,173.22939026069048
-939.7939153533572,338.9791620991879,157.6256927697022
-940.2028215547615,338.87719047789,145.84695079359415
-932.4958064170743,319.5076810123743,149.9523282670433
-933.3401314414199,315.4339147415275,126.40504147695698
-937.0304844161872,300.0576139660333,134.25073801960917
-922.7075504886991,299.66502322403676,103.06985565917006
-937.0304844161872,300.0576139660333,134.25073801960917
-925.3333197371172,300.00254929053244,138.3510169119934
-913.746284409049,303.7816175758287,138.51213207364393
-929.6783305206162,307.6330857122463,122.56173107024317
-933.6674603457859,307.62798713118144,118.5776998261384
-926.3693514095029,307.46585225331796,106.91316606588387
-921.2615928986964,311.61303809149916,142.29731865621798
-921.6164541408127,299.93830716911486,134.48221359995517
-929.1592949682105,303.9009243727471,138.28065649329795
-922.3251569088324,295.8981915332963,114.8628736622598
-925.7972906140222,292.16195132894524,126.59674812499682
-929.5406688318641,288.35739013832455,130.47778803159082
-933.3951961169208,307.69630811745094,126.43053438228142
-936.7031555118211,307.8635415763793,142.0790993866407
-941.0196142413566,300.0525153849684,130.2667067755044
-925.4699617096563,299.9678789392912,134.42510949202838
-936.6215782147829,300.1595855873311,146.0304997119302
-948.4808777717162,296.31219631576533,138.01654999413665
-947.4448460993306,288.8478736367669,169.4544008402462
-933.0678672125549,296.1928895188469,138.24802557448263
-948.9173163108708,292.34040166621634,126.25004461258432
-928.39552752469,296.36828070747913,161.86567278326444
-936.5389812015317,292.4566493144958,149.98291975343264
-928.4771048217282,284.76187077136433,161.90340228314463
-935.830278433512,277.1874187413643,173.59240923251062
-927.7143570944208,296.5395930312594,181.49826903172848
-912.4645011293358,311.8271784962246,173.82592424528255
-927.7684020537085,288.80198640718294,181.52376193705294
-928.2048405928631,304.14055768279695,165.76608729790502
-936.1851396756284,304.1313802368801,157.79802480969548
-940.2018018385485,300.2584980599899,153.82623016014645
-942.8826357624674,312.16776371135916,185.14273477691162
-935.6671238394356,319.7085651063309,169.5268006913676
-947.1725818704655,308.2255408319865,173.31810557121955
-924.379885077983,319.55152880953233,161.84731789143083
-933.0128025370541,303.93049614292346,138.22253266915817
-943.6464032059878,300.39004145146407,165.54786802832774
-948.7266293790439,300.1126786415341,130.1514788434379
-929.132782346673,307.7697276847854,138.2684198987422
-940.4750857836266,300.1901770737204,145.97339560400343
-925.3608520748677,296.13374597849423,138.3642732227621
-920.7160447247533,292.44033385508817,161.9931373098867
-925.4148970341555,288.3961393544177,138.3887464118736
-917.5997919778927,303.81118934600505,138.45400824950417
-928.8054534423072,296.26630908618137,150.0859110909434
-936.7847328088593,296.25713164026456,142.11682888652092
-936.3482942697049,300.2279065736006,153.8843539842862
-929.1052500089226,292.32918478787354,142.2453131293561
-924.8153039009245,296.27038795103323,154.06994233504818
-933.2310218066314,292.2904355717804,134.33435474907336
-928.259905268364,296.4029510587204,165.79158020322947
-952.1436984087329,284.80367913609643,145.85000994223307
-947.199094492003,285.0473913109982,177.3204917071579
-940.6107080399526,300.1555067224792,142.04646846782543
-939.7653632993938,304.229272993326,165.59273554169877
-940.3374240948746,280.9144814997986,153.88945256535106
-932.9587575777663,311.668102767,138.1980594800467
-914.1551906104532,303.6786262383179,126.7323703813229
-932.7405383081889,303.99881712919296,146.0763869415142
-936.4023392289926,292.4913196657371,153.90882717339767
-932.7130059704384,307.8676204412312,146.0631306307455
-932.1674577964952,308.0042624137703,161.7698194592445
-936.8397974843602,307.8288712251381,138.1521722504627
-943.5372935711993,315.86525469961714,165.49688221767883
-943.8646224755652,308.0593270892711,157.66954056686026
-940.638240377703,315.59604961939095,138.06957523721152
-935.9944527438015,311.9026374959849,161.69945904054904
-935.8853431090128,308.06850453518786,165.63862277128277
-931.8951935676301,308.07258340003983,169.62265401538752
-931.5678646632643,296.5691648014358,181.44014520758876
-928.2323729306136,300.27175437075863,165.7793436086737
-916.5902729270446,292.4790830711813,169.90409569016944
-932.0308158239563,288.72958655606146,169.68587642059217
-935.8027460957617,281.05622205340256,173.5801726379549
-936.2391846349161,296.39377361280356,157.82351771501993
-935.9934330275885,292.59329128703484,165.68858886571869
-931.9767708646685,277.156827254975,173.65053305665037
-959.305165372477,285.0004843652012,161.44045112245266
-947.8547720169478,308.0552482244192,153.68550932275548
-947.936349313986,315.75818449725443,149.73308928125306
-951.1351990740978,312.09026527917285,169.32081801634607
-959.2786527509396,308.1786338861895,157.4380649865143
-932.3040997690345,307.970611778742,157.8428923230665
-928.3414825654022,304.10588733155566,161.84017987794
-920.7435770625036,288.5715305430499,162.0063936206554
-940.1202245415101,292.5545420709417,157.7776304854359
-921.2615928986964,292.3036918825491,146.28746819760062
-935.8843233927998,288.75915832623787,169.62775259645244
-921.5889218030622,284.4977642722031,138.45910683056908
-944.2184640014685,277.0752499579367,153.84458505198003
-940.1742695007981,284.81693544686516,157.80312339076036
-947.5264233963688,277.2424834168651,169.49213034012635
-936.2116522971659,280.9532307158918,161.80041094563384
-955.7239220324985,284.9025916087553,153.64574039044936
-932.6304089571873,280.85533795944593,154.00468049741758
-940.6107080399526,280.8461605135291,146.03661800920804
-924.9509261572505,276.92637139084195,154.13316474025282
-940.9105046065681,276.9090362152213,138.19602004762078
-929.4040268593252,269.08169456440277,138.39486470915145
-937.3027486450522,280.67994677081373,130.38805300484876
-944.9281864857011,292.3455002472812,130.23407585668912
-944.9546991072386,288.47669693524296,130.2473321674578
-947.663065368908,296.51715927457394,161.5760733787787
-932.3856770660726,315.67354805157726,153.89149199777705
-932.3591644445352,319.5423513636156,153.87823568700833
-932.6864933489012,331.04576996221954,142.06074449480712
-929.406066291751,327.01075290746587,126.42543580121655
-932.0858804994571,319.6106723498851,161.73208995936432
-924.2972880647318,311.8475728204841,165.79871821672032
-920.7986417380043,300.1432701279234,158.0417369845972
-928.6147665104803,304.03756634528617,153.98734532179697
-920.034874294484,311.9209923878185,177.63660373318106
-913.1456715596051,311.65586617244423,154.19332799681848
-920.171516267023,311.88632203657727,173.7096765970031
-939.2473474632011,319.8064578627768,177.32253113958387
-935.9944527438015,311.9026374959849,161.69945904054904
-931.4036903529749,300.4726384647153,185.35381603299805
-943.0192777350064,292.8237471511679,185.20595718211624
-943.2915419638715,292.7554261648984,177.3531226259732
-951.7898568828296,296.47841005848073,153.66511499849594
-958.4322882941678,292.9430539480863,184.97448160177024
-955.2059061963056,281.1704302692561,169.36466581350413
-944.0553094073921,280.9787236212162,157.75825587738933
-962.4224378355506,273.6296288742843,184.97958018283515
-970.1834979325256,265.9511657905605,184.8898451560931
-967.2844447390293,265.68196071033435,157.46151845941276
-935.9383683520877,261.7122054932113,173.6433950431595
-948.2901908398894,265.46476115697004,149.89726359154247
-960.3411970448626,253.84509491008657,137.9828993591084
-959.904758505708,257.81688955963557,149.74940474066068
-940.5281110267015,273.1432242406938,149.98801833449753
-940.773862634029,276.9426868502496,142.12192746758578
-952.6341819071754,273.09529757868387,134.10797774979224
-928.9135433608827,280.79109583802835,150.13587718537931
-937.0294646999741,280.7482677570832,138.24088756099178
-909.9468217994933,296.01443918157577,138.59472908689514
-917.4080853298528,292.27412011237277,146.34559202174037
-913.6912197335483,292.2098779909552,142.4767887097021
-912.7367653582008,311.758857509955,165.97206997292653
-923.6161176344624,331.32823135321445,181.4421846400147
-957.8887795526506,370.3170807564255,184.72159198095173
-966.141342864281,370.2406020404522,168.89967522038617
-954.4441781852112,370.18553736495136,172.99995411277044
-938.8945256535106,370.0998812030613,177.15733711308144
-923.5896050129251,354.50638087420276,177.43979850407632
-908.0114004272613,338.98120153161375,185.57509445121426
-918.9172653250602,316.0630796449349,209.03672507941042
-907.3832552400667,312.10454130615454,209.2223134301724
-927.2779185552661,300.5103679645955,193.2647744132808
-931.3221130559367,312.0780286846171,185.31608653311784
-950.1256800232497,300.7581590043491,200.77090545701134
-961.4955157979535,289.3087853650329,208.48913747304127
-957.4237889595327,300.92029388221266,212.43543921726584
-969.4472628267555,293.1694309473674,200.50781867406303
-981.8806626115952,285.31557667501136,176.7994167223262
-966.7399162812991,285.12794889182345,169.17805774652916
-947.8537523007349,269.4365558065191,161.66478868930778
-966.7939612405868,277.3903422677469,169.2035506518536
-959.632494276843,277.19455675485517,153.61310947163406
-963.5940917642622,261.74891527687845,153.60597145814322
-968.5386956809921,261.50520310197675,122.13548969321839
-976.5455073852947,238.31889585128462,118.16879362473426
-975.8092722795246,246.22679508292845,137.77691668408684
-979.8809991179455,234.61630628196178,133.82959522364928
-964.6851881121486,242.16628512285033,126.18274334252779
-949.7891736729669,245.77913966543116,110.69529349981902
-944.9812117287759,245.98920120530457,138.23884812856585
-933.7215053050737,261.27168808920476,126.58247209801513
-937.819744765032,226.48304976724978,126.63855648972893
-931.0671840026921,226.18427291684725,99.26814967394576
-934.4291883568803,199.3035338265361,118.93154135204175
-942.026074143566,176.21919819714176,126.74460697587863
-930.7663677198638,172.19335858830487,119.07838048671056
-930.9295223139402,168.2898849250254,115.1636899450883
-934.2915266681283,160.71951175987724,130.83774785477203
-935.1919360841878,168.21748507390396,103.3268241448405
-942.2718257508936,180.0196805229105,118.87953582517987
-965.4204035017056,195.63867375709344,114.55491936594046
-977.5254546659665,156.97307439339633,106.65517786400046
-968.8639851529321,157.15254444688046,134.25685631688702
-984.8225438860366,137.8248433460968,122.30884144942465
-969.517623245451,141.54068922618836,118.60115329903688
-960.3116252746861,141.8578209684245,161.90850086420951
-968.3184369789889,137.97984021046946,153.9526749705557
-972.1984571693699,134.14060866860754,153.9067877409717
-963.5645199940857,149.76164133521644,177.53157296324434
-963.5380073725483,153.63044464725468,177.5193363686886
-968.1002177094115,130.31055457266245,161.83100243202318
-963.4013654000092,134.3547490733329,185.43539333003628
-955.1488020883788,134.43224750551923,201.2573100906018
-948.4778186230773,141.83640692795197,169.93468717655878
-931.5107605553376,169.14032824664898,209.3436596595168
-935.4458454212195,157.56450979692355,209.32326533525725
-946.4883522915572,173.23142969311644,220.8786894607231
-950.2867951849001,180.99860808736932,220.7960924474719
-946.5434169670582,204.11251548694003,212.9249029994953
-958.2130493083777,208.0363834744791,208.8123875125553
-957.4768142026076,215.94428270612292,228.41949085569487
-953.6783713092648,227.48747023703305,224.51295804377642
-953.5141969989753,231.38992418409958,228.42662886918572
-953.9506355381299,227.41812953455056,216.6601234876334
-945.3717630383466,235.3015555770829,240.30938189901752
-958.0233820927637,254.426333151484,204.7335226606436
-954.496183712073,227.28148756201153,200.9534346591344
-961.3578541092015,231.41541708942407,224.38447380094124
-945.9438238338272,250.60545650145565,220.6257998399046
-953.9781678758803,242.85969214767533,212.68221054080652
-953.8690582410916,239.02453947066536,216.62137427154025
-943.044770640331,231.02690521227944,197.1876226846069
-919.5698837013659,242.5231857973926,205.3504509694952
-923.6691428775373,246.35323989333773,197.42623627844375
-947.1440298165021,234.85695930822456,189.2644277097684
-927.6307403649565,230.90759841536104,197.4190982649529
-918.5613843667309,250.50042573151896,232.81038886877786
-927.7673823374956,230.87394778033277,193.49217112877488
-916.0702176584258,230.81888310483197,197.59245002115915
-923.3958589324592,246.42156087960726,205.27907083458678
-920.0063222405206,238.55139114784356,193.58292587172994
-909.1820346397598,230.55375688945767,174.14917428479654
-913.7177323550857,249.72238226101678,150.4683046708101
-916.615765832369,230.68224113229292,181.88678090887308
-947.6069809771941,227.01738106285023,177.5101589227718
-932.2480153773206,238.46981385080534,173.77697786705963
-940.2558467978363,253.90219901801333,161.83100243202318
-939.5196116920662,261.8100982496572,181.4381057751628
-958.8136621578216,258.0901735047137,181.16176268144577
-932.1674577964952,269.3855699958702,169.7490988257968
-947.7171103281958,250.16086023259732,169.58084565065545
-954.3054967802461,254.36311074627935,200.86471934860532
-951.2432889926735,257.9963596131197,177.35108319354725
-943.1548999913326,254.17140409823952,189.2593291287035
-951.6521951940776,238.58504178287183,169.56147104260887
-946.7075912773475,238.82875395777359,201.03093309132072
-958.2681139838784,238.91746926830265,200.85758133511447
-947.4162940453672,234.78863832195503,181.41159315362538
-953.7874809440534,231.32160319783006,220.5737943130427
-977.4805871525956,227.49460825052392,204.53365828289992
-969.5013077860432,227.50378569644073,212.50172077110943
-957.5594112158587,242.9575849041212,220.47794098902278
-973.6821442592528,239.03677606522106,200.62610575476847
-980.5703272779188,239.30190228059536,224.07040120734402
-984.532944481551,243.1656070115687,220.07311365247057
-965.9751291215656,258.2869787338184,196.75220386166532
-977.0992132889418,243.03814248494646,212.33550702839403
-970.1284332570247,235.07007999673695,192.84363161732094
-962.6396373889148,242.67920237797824,185.0815518041329
-954.6603580223624,242.68837982389505,193.04961429234245
-950.3428795766139,250.498386299093,204.86200690347877
-946.5719690210216,258.1717508017519,200.96771068611608
-938.3744703848921,269.82098881881177,212.82497081062343
-927.0046346101881,261.9599965329649,209.0979080521891
-935.0114463144909,277.39238170017285,197.15193261715268
-957.9693371334758,281.47328598451054,200.71889993014946
-961.3313414876642,293.2122590283125,212.40280829845057
-941.6824297797924,308.6069146956403,220.49425644843043
-949.5811515655195,320.2041471858382,212.48744474412774
-956.715086191513,304.9593898018182,232.05477915496118
-957.2331020277057,308.6915511413174,216.3368734481194
-956.5794639351868,324.3034063620095,231.99155674975657
-964.8310075306043,324.22590792982317,216.170659705404
-979.5638673757094,343.82587325947196,231.58163083213947
-972.3198033987143,335.9261317575319,219.94360969342233
-996.3677708493727,320.42440588784143,196.08734889080372
-1011.7818011247472,320.5437126847599,195.85587331045772
-1015.58024401809,309.0015448700627,199.76342583858914
-993.032279116722,324.12597574095133,180.42654729188868
-988.6342430901482,324.23304594331404,196.19034022831448
-977.1552976806556,331.8472669056202,192.41229165923124
-976.3650176155977,328.1834265523905,215.98405163842904
-945.8907985907524,316.2711017523824,208.6318977428582
-923.2612563923461,304.3842698576986,197.23656906282983
-918.8071359740585,292.9185807589748,216.9650186353138
-907.601474509644,281.15513452606143,209.32326533525725
-926.0501802348408,281.5089760519648,232.59420903162652
-921.9244084371321,262.2383790591079,244.49429723707897
-934.0029469798557,266.0592557091362,228.60202005781795
-945.0444341339806,262.41682939637906,244.14759372466648
-952.969668541245,250.83591236558868,240.14316815630212
-952.8330265687059,250.87058271682994,244.07009529248015
-960.8398382730088,246.99260195887487,236.11324968261334
-957.2045499737424,254.6323158265055,228.29304604528562
-955.0141995482658,250.32299511046077,181.24537941090995
-965.8660194867768,254.45182605680841,200.69136759239908
-966.0842387563542,242.81176548566538,196.80318967231423
-955.4506380874204,227.0418542519617,173.46800385452732
-935.9648809736251,219.2247097632729,181.63491100426754
-909.5634085034136,215.01022265503514,166.34630582308944
-897.5939795954788,215.02449868201683,178.29941927161673
-897.812198865056,222.69276460361087,170.42109181014925
-897.6490442709795,226.59623826689037,174.33476263555855
-937.3017289288391,222.75088842775057,142.3574819127837
-991.9860502822065,195.9496872020517,125.92985372170926
-1042.466081689466,161.4842989196107,121.36560395242006
-1054.4579443540863,157.6022392968037,109.42472709844853
-1078.6660072501822,138.19703976383374,81.65550927176967
-1068.387267823365,130.0627635329088,46.51537477120118
-1049.338968964937,137.58317060362103,38.92603488449165
-1025.7019471481087,114.36321271790062,58.981609418098955
-1014.4147083866561,114.20515670488903,51.301922674919574
-997.6373175345303,133.73782076448126,86.80895106891752
-1013.2695670794819,122.21706699025663,82.68909362524411
-1024.8249912049478,122.30578230078571,82.51553792579526
-1005.4799549285435,114.45396746085565,86.75653765557045
-1012.7780638648265,114.61610233871916,98.4205615577185
-1004.6896748634855,130.09947331657602,106.3390658379773
-974.2440078926036,114.3183452045296,98.99874065047699
-935.6538675286669,102.44884848546651,103.54096454956587
-904.417920492727,102.31322622914044,115.78367740257889
-927.3197269199983,75.51365654938232,127.3044311768035
-961.100885623531,68.28346071288361,154.2952996181163
-991.1916913522967,57.120525357792935,177.43062105815955
-1059.2200190686933,54.129493761886074,215.6679396124059
-1108.8190156679398,46.915613384795016,230.64757078105168
-1146.7524587907185,-2.840756017600302,257.71899680318967
-1166.514558998231,-33.71018645510954,249.67853446385877
-1179.4139690924019,-49.403618972839865,214.21688344133833
-1197.748466601745,-52.88411435097613,241.42597115222836
-1217.5921441062953,-76.0503331922726,229.43308877139492
-1221.2529253108862,-87.55834051383502,237.2665487194914
-1213.2991388496584,-110.7279244186343,249.23699734363927
-1162.955749414938,-172.84291781597182,269.82404796745067
-1088.893760866351,-246.57247887912797,310.4281278520188
-1042.7006164184509,-312.59502480459696,323.1164566901032
-962.953709982512,-402.3371895601455,308.91588870817253
-885.0657462028319,-422.03606736245314,337.62090010350124
-861.4542172913278,-429.81548235126166,353.6997853497372
-857.3559778313696,-395.0268440293067,353.64370095802343
-887.2846486822718,-344.35816512264637,368.72326431554103
-920.4937465903241,-328.27418129534556,407.4174157332015
-919.7034665252661,-293.31830951446216,423.00989634584704
-903.9355947239884,-281.76288538899627,431.0564769824558
-884.7771665145591,-278.07763099529404,427.4058929399948
-853.8399963290217,-282.14935783371493,431.8080078314205
-830.9647025232879,-278.5283455614303,424.2886204769213
-824.2672064364488,-267.2553828269593,392.95478068453554
-802.129167452698,-252.23190386115547,361.83814044551406
-806.4191135606961,-236.86478053157808,346.0233616984394
-791.7678310126292,-248.76078987217858,326.65997053020146
-795.2674970555696,-237.05648717961796,334.4179714785376
-784.2800548607323,-241.15064777472432,318.8978907170135
-771.9282323729307,-244.90422315469607,342.64300245241753
-752.9615108115413,-229.6808798111486,331.10185435393333
-760.505371355152,-206.40891639856628,330.9101477058935
-760.0689328159974,-202.43712174901728,342.6776728036588
-755.8615837212504,-171.48261638785928,346.5607521426787
-748.2912105561023,-171.57643027945326,342.7500726547802
-771.4122559691639,-171.3979799421821,342.40234942615473
-751.8449215583304,-148.30038800201905,346.54239725084517
-762.7232541183789,-148.0403603677097,366.00164174310294
-773.7657609887169,-132.3734404715168,377.5570658685688
-758.652546996171,-117.12052535779294,365.95881366215787
-750.7273125889066,-144.1583007449027,377.94251859707447
-739.5206314082792,-155.9217469778161,370.30076529701785
-701.7768555011141,-171.865009967726,351.29631423574824
-686.8543284403951,-164.38335211310695,335.7966277984837
-686.9359057374334,-175.98976204922172,335.8343572983639
-659.87977545849,-145.28304772781735,332.2113055936533
-670.3492018171344,-164.22937496494728,367.44046131961477
-690.0256458627565,-144.87312181020025,351.3819703976384
-693.5528442434471,-137.03762242967784,359.1511882243172
-703.7765189947638,-140.47508578362644,398.2562852758078
-715.1463547694677,-132.61409349777958,401.9843677504551
-703.7489866570135,-136.60628247158817,398.2440486812521
-711.4549820784877,-175.16583134913554,406.1070803995248
-700.8213814095537,-210.24508879178924,386.7620441231206
-686.0344766051609,-222.1064277811485,371.3245603748477
-663.4049344067546,-233.99427939204523,359.9302514110324
-682.5898752377215,-222.23899088883564,359.60292250666646
-673.4103898884941,-225.79066245863777,402.92352638260775
-692.8686146645389,-233.4140608668608,398.7335124634815
-730.8306098412812,-248.420204657044,417.83789571362297
-786.14205666563,-267.65511158244664,381.753198084973
-809.6709885638827,-286.8889987916363,373.61586270540914
-798.9558105979106,-310.36082658196227,354.23309692912466
-803.326314286734,-345.21880560639977,346.43532704848246
-777.1971060453876,-388.11928640259424,331.2731666777136
-743.7422565300078,-408.00477227187673,300.4440864107519
-731.1732344888418,-419.4266135734426,332.0685453238364
-720.2673695910429,-415.81783789571364,312.59604452080987
-743.0600663835255,-446.45215236599654,328.05698174198125
-727.6735684459017,-450.4402624749532,328.30069391688295
-739.2065588146819,-446.481724136173,328.115105566121
-731.4179663799566,-454.24482366557396,332.181733823477
-746.6678223450415,-469.532409130539,339.8540786099229
-759.672263209149,-500.70105489642236,304.44341339805135
-780.2215843330803,-508.5967175335105,268.84104153813996
-792.0268389307257,-524.0168661061626,264.79072874019164
-788.5822375632862,-524.1494292138499,253.06909087201035
-789.89155318075,-536.063793446284,217.76855501114042
-744.4132297981473,-548.1973966645083,198.86709528738155
-729.5447476967162,-567.7626916429158,187.38203158061114
-718.2024442597626,-540.8737948229009,175.68792605018024
-723.174580514243,-525.6769641008908,140.2405510546415
-785.6474943023358,-525.4057195882386,115.75614506482847
-774.4418328379213,-517.860839328415,104.12424222338925
-813.5214369840875,-537.0090703757145,91.82962581513566
-829.4534830956545,-552.4679681644599,79.86927238149624
-853.2822115605227,-594.9473061646944,67.88179449659161
-854.891323744602,-591.4894484864863,20.750613104373056
-889.4637822294056,-595.0564157994831,24.169415651624156
-905.4498733002606,-598.9425542871419,8.244538145034237
-932.1236099993373,-614.1067540903367,19.670019833480346
-932.6701778894934,-575.6247036449756,-4.01572402400412
-924.145350348998,-536.8601918086198,11.679625560206595
-916.056961347657,-521.3758011145499,19.597823925601507
-924.8550728332306,-521.5899415192753,-11.930169833735274
-914.0848301917578,-537.3251824017376,-31.33893837345067
-914.5212687309122,-560.6063232602368,-39.116109986590736
-914.6028460279505,-572.2127331963516,-39.07817654346796
-941.3856923618158,-564.2324341135862,-35.58167162078794
-945.7031708075643,-572.0424405887842,-47.393860288681665
-976.4211020073114,-575.6389796719574,-43.91723983215471
-979.8381710370006,-590.9479791773949,-28.218300846874318
-960.8163848001102,-587.296375418721,-35.794894280921625
-918.78368250116,-560.6787231113582,-50.95358761656632
-869.8067127918301,-545.8989563204561,-85.59140991062189
-869.9168421428318,-503.44511122554593,-97.51015892277181
-904.0538818046939,-464.42261118730664,-90.30382444565679
-940.8166907149741,-425.0615653663586,-47.816532658961016
-971.7263285627611,-417.12001549968653,-52.23088414494247
-974.5692973645436,-467.041242422234,-12.858927360515569
-998.0972095465834,-544.2031682582738,-9.026395354172935
-987.9540923760919,-610.3001534672902,-36.123854731228306
-943.7014678814887,-680.6707693248969,-78.39435485104497
-911.5559339835726,-693.1602535014506,-148.51350869053144
-896.3611426939884,-666.300928451612,-160.15051011303558
-938.9414325993077,-596.5074719705507,-180.64680599389192
-946.5413775346323,-523.0450765551948,-192.78244864454223
-988.2487903616424,-464.6183967001984,-185.75558422091135
-1009.8698332254135,-444.75432487138835,-146.90031764160037
-1037.3573034624465,-460.1234876333917,-159.03392085982475
-1066.8271020175087,-478.8526153171573,-116.24152998220596
-1066.0623148577752,-467.0748930572623,-96.6462553471369
-1035.7257575216818,-459.71254199956155,-111.91487409054062
-978.9601953776265,-452.6948550218475,-142.4859661556189
-986.2593240301226,-413.91402772608393,-138.8007117619167
-1018.8412964671933,-347.46727985601615,-92.41779812678134
-1005.9459652378744,-293.1551549203857,-64.93552844243447
-989.8232321944803,-308.5436922904356,-41.09446141138921
-981.841913395502,-347.15422697863187,-25.14609984041442
-942.5716223175092,-358.8524113739147,-0.9707045729173571
-961.9737627018402,-397.35689557596123,2.7931760591027524
-924.1300546058034,-392.9690567115172,93.6114779256933
-908.6079344118532,-358.3038040513326,89.80242998373554
-888.8784651231564,-292.6840460299899,89.87666532404033
-830.7230297808122,-204.2185659730897,82.60007239985113
-806.1866182641372,-119.08041991913652,106.22791677076272
-781.8123416253258,-76.46311431528606,133.9213696828173
-794.3630087746582,-37.007030943288484,208.16894658216623
-836.6241275053154,-12.479898844151673,317.34180377600916
-851.7363217816483,-66.35191426226082,336.92035506518545
-857.8332050190434,-146.98801323591647,399.89496923006334
-850.1812545568569,-135.47541719139565,396.0465602422846
-829.8511724187159,-100.6009187643079,419.78045509934594
-834.2940759586609,-171.22972676704075,306.1381817440207
-808.9949167146784,-35.69526800691368,341.38161349696384
-862.6432063956602,-31.341589635604418,348.41255678544667
-837.2777655978341,-28.091550121601163,301.68610075815906
-1081.54160697078,-316.23439196871516,314.69767963575737
-1107.6769335094045,-348.8265615679157,-321.37172224969794
-1532.2561731070246,-485.63168870103453,14.171710013103354
-1555.383336817364,-461.28698383239947,119.70754539011794
-1590.5125603544536,-479.4440507206845,221.28351679727533
-1620.0741333686835,-384.2107141582498,459.92056410700906
-1561.950309228942,-357.5410563240251,464.62655442990217
-1496.0766418705675,-312.61032054779156,355.57198431676466
-1454.5334033538468,-239.7740308872041,316.702441710472
-1477.303666389644,-15.517123584506434,280.2832771639653
-1411.8990684892397,2.2647183288890704,163.46458780521382
-1139.5634594892242,15.28483223119006,128.25378697108596
-874.2883655478682,-3.3675108217383105,6.702115401283824
-423.1149271157837,-109.17081776141701,-178.48908648723062
-133.6338097107575,-69.80039055130958,-280.25064624515
-255.54700126954674,-11.56531537273177,-364.6902866932133
-568.359225627508,124.96724161665811,-83.33916271101752
-892.1772470721398,218.25190049609196,111.65076759137932
-1105.7904585153951,85.2994651588463,199.16689185399704
-1262.887938286775,180.42450785946275,314.2306496102135
-1218.6322546435329,71.43560747044098,279.93963280019176
-857.2703216694795,-175.87351440094224,199.8450031356274
-590.390194408896,-255.9120596737928,137.39452310422013
-614.5523700754081,-16.556928206880027,57.732661000443585
-563.4870215618994,165.80483651399817,159.9220936813285
-559.0176054004172,298.2313022285898,261.58270153416305
-868.1190824593516,208.71551447232238,363.2198559140992
-951.8887693554884,333.20348946888083,365.4693498799284
-948.773536324841,421.8127495118109,325.9706423702284
-968.44896065425,363.93059811454475,325.87172989756954
-896.7843249223741,220.0853502470263,311.7313251722046
-792.9578398331745,149.71371467320648,321.3737616821239
-756.996527866295,254.0378212743394,337.2589008478941
-715.8927870373676,361.5220284194909,278.6425537772838
-772.6899603840252,582.3487123533521,261.34816680517815
-773.9809211096552,637.0880983822203,323.9383479577634
-904.3985458846804,703.030086726864,659.279162609046
-1087.741481545686,729.0338698740142,809.5057945373803
-1262.3984745045454,648.9586148174964,787.5370284449838
-1220.1720261251296,418.74442342696034,608.4136784732809
-967.109053550397,225.23797627120373,393.07816634630586
-833.7913558656627,158.15390576802477,363.90408549300736
-698.4964284439642,339.7255943670877,451.65984306567486
-697.9080521890759,506.93050124150454,545.2952843223732
-753.9404383760001,642.9881763905106,567.5454920895515
-725.5484798580555,670.1687120474373,603.1998694763248
-738.8068300591946,647.6564372135236,669.7965156297004
-866.1061626549333,571.3663687395798,679.9202581921452
-955.935003288585,536.9927549163068,651.2183059454554
-949.6617091463447,384.9632647234275,530.1616760055678
-726.7762181784809,192.8538287794507,443.8824675092922
-594.4782367067246,238.5055039182596,473.182993173
-643.7682592934387,475.66702186781424,557.9856525928834
-693.4947204193074,708.8567451678199,631.0218066312145
-666.6863811801177,820.6023463670061,603.5741053264877
-659.3872525276216,801.1308652801927,595.8997211076158
-651.9525016187995,723.7649962015572,604.1216929328568
-682.9957222904866,635.1251446722378,615.7301423013976
-661.3185950350019,545.761294631704,592.8079415498668
-631.1982175360598,464.2451805662485,589.6101115059679
-593.0995803867785,459.9766484987229,578.4207655009611
-563.2535065491275,455.63061799901095,551.4105224516018
-519.7646494980447,373.482279881509,489.5453595264438
-472.814875620115,415.78418726068537,501.8788271224119
-482.1412001040111,501.39548163746036,548.5461396093468
-498.1395277694219,637.5316749348657,614.5656263861769
-488.74386258304315,761.4761411899069,637.8365700825461
-478.54670045326395,722.4261088139172,606.7240087083766
-462.4494603151943,683.8594219228789,634.5673599037389
-480.48008239307006,621.531307837029,571.7140919682054
-484.1694156516242,586.8456608525848,583.5489183360272
-459.95829360688924,606.2498406693418,611.3188499640551
-480.5167921767372,641.8287590563548,677.6095812535373
-490.6864219687661,665.4382485354326,712.6990358583207
-452.9151137238507,653.362769141348,693.6823482024953
-403.11931189549955,610.4204799804215,694.573580172638
-393.13934931908454,559.7293673170757,659.5718211621706
-411.18118827530304,618.11423880734,682.6520779267131
-437.66627747497876,707.2690470242133,678.0307240494972
-423.42390112831606,656.6513539282018,654.8668505554905
-378.7358578107713,628.8712251380441,616.3837803939165
-359.41427500726553,617.1506069860758,620.6370167182473
-382.20799151596117,644.4443311426431,624.1285250314838
-362.7772990776667,667.5082724477779,624.3416457199962
-355.5077421953471,682.7866804668262,608.7002187291278
-350.80990960215775,725.4495673853968,624.3253302605885
-338.62226142464556,737.1039039835215,640.1676413454136
-308.2306394130514,713.5841495311855,632.85219723351
-254.55175824568028,597.2437070763207,649.7478751663413
-249.14624260068427,682.564382332397,677.0130472689452
-204.7692127280978,752.2507686110956,720.6130533872424
-208.8123875125553,725.1997369132172,720.6436448736317
-199.1872861782566,682.1432395364371,673.8376509817318
-227.50582512886666,671.4250024218261,748.0179266110242
-278.22752927860176,621.4507502562038,739.5777355162058
-236.02963295314916,594.04179816757,740.3017340274203
-157.84187260685354,597.5893908725203,772.8582135591666
-170.43842698576987,566.5237364441476,749.2262903234031
-203.15500196295372,497.7703905003238,819.6111822079915
-109.24933590981631,292.73197269199983,904.1273013720282
-102.71907328190566,512.505289777855,824.9912049476633
-185.07747293928102,934.7147088965143,806.6342736816345
-180.99147007387847,632.5177303156532,764.5444672747576
-137.45570607699878,562.9639071446417,812.526193960221
-102.63953541729339,620.6584307587199,805.0037474570828
-67.46860548709296,651.4089928772823,813.2767050929727
-29.696481469207125,600.7158407815106,802.2392968036996
-5.402945960139293,593.1077381164822,837.9507782983997
-43.393309641926656,651.4701758500611,841.1088394099922
-24.88892741150138,620.2342288141211,825.7937216072768
61.668561639295795,595.8589324590966,772.2270092233332
115.97028546955384,645.7363115844861,772.8724895861483
-42.567645424278425,685.4379426205687,746.8167009121362
-156.90781255576576,627.723024682231,682.5042190758313
-237.06464490932174,562.8874284286684,716.844182264076
-159.39795954785785,666.7128938016551,713.7320083820673
-152.183467341039,732.18275353969,686.1476651048015
-160.32692101788075,766.8898145646068,666.2846129922043
-188.11826668638122,708.9648350863955,654.290710895158
-87.60147450964398,715.9967980910914,663.621114243906
-74.76161584231109,820.4993550294954,679.1595498972637
-94.19200236574163,797.4364334405735,678.9464292087513
-98.7616566309596,740.3537395542821,781.1107768707969
-214.2352383331719,649.5898191533297,913.1242575191325
-238.0935385682165,680.4790626768571,885.1901515808152
-147.2460014377999,640.7356232760424,847.4392376601593
-127.9519509720445,702.383586647836,835.7461518459413
-174.19404179816758,722.0498335313283,831.0625952797338
-180.4316458729536,853.7828922210949,846.2237359342896
-163.73787175029193,958.2568971055356,861.8192756955741
-141.48256540204864,1098.886979753535,1030.4334303763264
44.809491518510406,1099.6517669132681,848.7679278856696
344.3357313659609,1071.0385299771074,939.6929634482724
458.4144432604407,969.3514095027356,918.1963259624847
305.79657681267304,748.8020883788042,783.2175105668093
113.89822212478268,641.353571301107,713.9869374353119
42.66196917397889,659.7329363238211,544.09915720455
107.82377264407317,719.9339223893991,411.4350976123345
190.19950747706918,707.0916164031551,345.993789928263
175.88677071171097,625.3899139869375,283.26084850586085
133.5552915623582,536.9081184706297,302.5487806743384
140.22525531144686,563.6216241020124,267.23702793512564
256.1282395109442,624.5945353408148,264.8427342670535
406.0295819673386,704.4372951007736,239.34676979396636
494.22177807916063,738.4009830064294,220.92967527137202
510.791146823839,644.8899471277144,162.62434164572002
456.16189014597245,587.206640391979,154.15151963208643
375.5941121585863,599.5064573529188,160.75214267869254
324.7337266038862,665.3536120897555,124.44616663182637
302.7007183900721,839.5904819688682,119.60455405260717
277.56981232123104,972.5624958574031,256.1404761054999
346.34661173795337,1165.9741094053527,311.4631398081914
350.199099590584,1223.8735959782393,299.55183472439626
286.79926376489425,1189.152258926341,255.54802098575968
297.4338841500411,1115.4573682144262,244.1822640759077
409.37731029454505,1025.8141159315362,269.7098397515972
385.82186577475494,925.4750602907212,277.54431941590656
245.67308917928145,807.4673818276375,370.03359964921765
141.07875778170936,697.1330678672126,486.5779853466781
244.7594234524532,689.5117088914157,590.1964483284303
352.184487057252,685.6949111062393,689.9348911198015
275.4416645847461,713.4046794777014,692.6157250437204
160.0016315459408,718.2004048273367,694.7948585908542
165.90782785150896,733.1372079150373,639.8882391030577
208.8756099177599,809.196820524848,530.3860135724229
296.96685412449716,880.7564254867871,390.17809343659667
391.61079471583065,968.412250870583,324.58178888815246
337.1426531996146,1030.4844161869753,296.0837798840583
215.65876216648908,1039.6210734552576,345.25347595764106
228.0085452218648,1113.1120209245769,353.0400289599405
273.86824246812114,1116.517873075923,341.9414376978887
301.7442245822988,1012.2641268934857,389.8058970188597
373.4904376112128,880.025288962082,375.6287825098276
382.8188015275349,678.5568976153937,352.9003278387625
367.99008835840993,484.7312792849751,298.38731880917544
352.83098713628004,437.5745030158108,204.12781123013465
378.46665273054515,537.4404103338042,145.30650120071587
414.4799702242866,746.0488546037639,141.21743918667437
468.1180627431387,843.0983057415123,224.11017013965014
496.1571994513927,781.3667256402543,267.9090209194781
432.47796138334706,654.889284312176,345.87448313134456
344.1175120963836,448.094915185104,506.1575563520673
267.3410389888494,399.55540373114167,634.6846272682313
255.97018349793254,465.34443464383867,626.4422611187307
211.77874197610805,615.8331336389083,542.85612314093
234.11256647275064,826.8654433471165,365.87111806784173
297.0280370972759,960.8755283404629,264.3206395660088
358.38334191594487,956.4621965706945,257.4059439258055
364.52305323428493,784.2168324555278,470.00861660199973
296.2030866809767,506.95701386304194,556.2613124767378
167.48226968434685,215.0397944252115,680.9063237700949
138.20213834489863,131.70144748716433,853.4321098438306
114.52534759576412,213.83652929389754,931.2925412857604
148.95810495938983,371.84461564346645,892.0293882212582
91.17823109828535,627.1815553731398,839.2825276725488
-54.15998327665412,913.3710288426732,698.777870118746
-219.25836039830116,1133.1800359959825,1335.277592246078
-429.6768009462967,1466.4538858835588,1641.0496958696397
-493.191864704053,808.9439309040295,1610.917081776142
-230.2121519581101,277.9522059010977,1306.6031723371386
80.64792768172619,528.116125282334,1000.3681175528851
140.48018436469133,746.3150005353511,792.523440726446
246.15235579938107,597.1753860900512,649.3981125052899
215.9738544762993,309.8030418134634,504.7054804647867
122.61781546195695,321.88361978861286,475.7934666782235
79.79870801955816,602.1526209255965,627.2672115350299
24.98284327471665,859.2291965146101,770.7892093630344
-44.77053835917465,907.0069799574779,859.8502036883136
-27.44494807095186,772.2004966017959,942.9815482351264
75.12861170736184,639.7240647927682,929.2663651705732
258.2971758959482,537.4353117527393,900.958023382093
320.06036719980835,571.7426440221687,897.8427903514454
292.60450816537764,516.7677035481026,783.8028276730587
299.50798692723816,241.3148220850138,706.3431447028292
290.9984551299374,-91.94709712287072,640.6214150601888
82.3290318304416,-31.561338479501156,719.708565106331
-259.5799788918744,261.9895683031413,796.0139293234694
-370.2824104051843,650.3015810699883,855.8396598226715
-40.11339244288315,1201.6743740217098,933.4930888733666
-48.041482055543945,1344.577404108437,897.5705261225803
-73.92361305848583,1287.1265926692604,940.547485634748
117.08789443897764,1184.8184650211847,916.2812989145121
290.2591608755284,1047.2485507283325,829.0731289482138
239.8484701707515,899.8118623587056,738.5498615735241
33.88180469375373,726.1715264641851,610.4622883451535
30.25752932958758,597.8198467366533,532.3489672824054
128.15691393085308,581.0241009926938,471.07727919320064
202.65228186995563,665.7411042506872,491.53074699311185
219.9742011798117,724.0301224169315,534.7646749909501
237.37973721913195,678.0674338331643,601.898711588565
365.3928711639551,526.684443719313,659.2720245955552
417.5992821197861,355.90645123462144,644.9317554924465
286.31183941509084,221.68426526897565,663.0408957187216
276.16872224459934,229.85321185114188,702.107243554119
297.3981940825868,334.4679375729735,737.3945231042202
254.9983939469646,455.50723233724057,822.6927646036108
205.3555495505601,623.0659807375608,911.6497478751664
216.41233244787978,847.8369269832206,962.0767540393509
204.95684051128572,1037.1839517062404,925.945149464904
199.30251411032313,1071.517796597207,866.8750286795186
405.99797076473624,1123.6354922425091,818.7760346295628
343.1701957345271,1112.224867819286,786.4765235834868
320.84045010273644,1108.7476355330314,809.7005603340591
414.3606634273682,1042.6394334456722,854.4956738539665
396.0231067693861,923.3000056084393,905.6436193807265
419.11865927712324,842.0153671233297,921.9621379370121
477.16702441710476,799.1495566783765,938.6752866677206
471.8961113122219,752.4812244752286,907.3567426185294
524.0168661061626,782.5006500690859,849.1666369249439
538.0389837508222,816.7906471628947,802.1658772363652
524.5960649151341,858.8886112994754,739.0281084774108
488.33291694921303,866.483457653735,691.3635135341835
506.70004537737157,873.8325524006669,664.1421892287377
460.78732288804025,824.0673420587052,683.2455527626663
417.22810541826215,773.8952649477651,659.2139007714154
388.7270372655291,731.2405357588984,623.6094894790781
352.1936645031688,642.2193103659253,588.0407682541949
313.0610351139278,538.0960878587489,591.731121228962
285.3522864586786,472.46715239148955,583.6875997409921
264.64286988930985,325.50157291225855,572.099544696711
286.45765883354665,139.62464246200284,573.0529793558453
360.36567023397396,37.82698475014404,503.86115544044094
421.91268170068275,41.18542009758685,500.8468743148782
493.5171541759929,121.31563785798413,438.85526657931104
511.6905365236855,256.0599185246746,379.8035006857592
496.43966084238764,318.0097178955097,371.51728673910054
469.1918239154044,337.45876522563776,359.26947530502264
460.204045214217,310.1640213528575,327.82958502648717
439.9290277515768,263.7169675679259,308.0593270892711
439.49462864484815,143.88909566467655,320.2306598073757
414.63088822380735,31.63516593332076,292.76460361081513
463.1999714479461,-30.924831619360337,262.3067000453774
600.2070023912346,-44.01268526968945,217.3076432828744
813.1553588636284,-18.363049563306532,243.95894622526555
1013.6703155511822,57.36148429891962,234.93241830798493
1135.086905314251,141.89249131966574,275.7129090973982
1145.5491936594046,223.6237655060597,338.3877266956606
1040.6815783167547,267.69691994717874,415.16012093834286
895.828850830814,261.5011242371248,460.107172173984
777.1634554103593,200.83208842979002,493.85569995870156
757.6256927697024,104.36489524965205,505.66197427256003
799.0608413678474,26.5605481994361,494.77140511795574
892.9430539480862,5.891522589263408,429.52894209541495
956.9241280151734,39.759550916979805,379.352786119623
978.571683500482,81.69232102705817,328.51585403782127
949.5240474575927,116.13751892848221,261.24619518388033
921.4849107493386,158.55975282078998,221.43647422922203
902.1898405673702,212.76786670269664,209.19070222757009
875.2418002070025,255.46440425629552,200.79435892990983
830.2549800390552,259.99806253919536,235.42596095506622
795.0013511239822,236.95043669346825,223.2026227100998
796.91127959089,198.81101089566775,286.1537834020792
796.2851738361215,148.44824685290087,278.4651231562257
801.3664197253905,110.10793696114374,321.8407917076678
767.9125899262236,110.68407662147625,356.66002151601214
761.3772287172482,122.62291404302185,387.91840230863755
776.3823527912183,141.71098183375568,372.3799666552799
864.8192807941551,191.18251390637988,357.8398331744276
911.442745483932,206.36914746626016,366.3361086609597
950.385707657559,225.48372787853145,374.70389990465657
966.9989241993954,241.11291827484416,406.29674761513877
929.0369290226531,264.72546690256104,417.4228712149409
892.4933590981632,277.107880876752,471.7778242315164
843.8161859554486,246.95589217520765,518.2462920569207
830.0398199181169,208.86643247184313,573.113142612411
823.478965803817,159.00842795450026,616.3542086237401
827.5241800207003,147.44076723447867,624.3028965039031
808.3922644328085,166.93366236176473,623.9500746942126
800.2488107559667,182.33137717773147,608.0781918392113
803.7474570826939,189.93642069412087,596.3310610657055
845.426317855741,204.87832236288645,573.3568547873127
840.8090428433769,212.44053779833075,549.7147343894195
797.7117568180776,228.03709727582816,525.4689419934433
725.667786654974,259.7920798641738,551.7551865315884
706.3451841352552,290.82204422509216,543.5118006658747
702.1103027027578,294.618447686009,531.6616785548582
727.330943798341,283.3811750189923,594.8708274487211
762.1756665120098,287.0154436020456,599.3055732589621
781.1434077896123,282.929440736643,591.7535549856475
797.1294988604673,267.50725273156485,611.6686126251066
800.792319497484,298.3240964039708,599.8450031356274
765.8925321083143,325.570913614741,587.4564708641585
718.2595483676894,321.71740604589746,547.5101079369612
693.8852717288779,298.40975256586097,515.826505483524
682.4889233326365,263.7832491217694,527.5471236354923
717.2255561277298,232.63397796393264,536.0209653653388
748.8714290812867,213.29200083616735,564.0325697358426
761.195719231338,205.6696221441573,587.7909377820154
761.5770930949917,221.2131563785799,595.5938062437224
748.5349227310041,268.27000045887235,654.1092014092479
702.4009218234567,342.0301530084178,641.3953796658391
685.5592888499132,416.1635216919132,695.8370085605177
681.868935875146,458.71525954326916,691.714295911448
704.9889615719945,458.53680920599805,692.0609994238605
694.1391810659094,404.7376015254955,723.4764165132844
681.6527560379947,331.2181020022128,711.76395609102
680.7543860543611,242.16934427148928,704.2017406555756
665.8604110476056,180.62845110205834,731.6586194062193
658.6724314623241,119.02739467606166,759.2307260889295
658.2370126393826,115.05661974272562,747.4642207073772
680.2394293668073,110.73506243212515,716.4108028735604
678.822023830768,102.65585087670102,677.1711032819568
696.8342910168101,98.33052061611254,642.1336542040351
703.4777421443613,121.17593673680618,606.8341380593781
714.4376520014481,151.83064553134864,583.3480342420705
722.7707728939037,182.82390010859982,595.1420719613733
702.5487806743383,202.0424915745948,563.3768922108978
655.8437386875233,194.55981400376277,550.9292163990763
616.8732441761458,190.8857764884033,538.5835122085524
586.5377065562654,125.59436708763953,565.8221716896188
578.885756094079,75.4635884833251,577.6498600439498
587.0302294871339,40.75652745840833,597.5129121565469
622.5836549688222,48.431421535386704,621.5669979044833
600.1172673644925,64.22162512172864,636.8759974099208
563.2188361978863,64.9297160600205,683.4158453702336
437.008560517608,66.15103016830416,708.9933871403589
368.30110180336817,43.679543982909564,731.5882589875239
289.7513422014654,33.31392473474632,801.0890569154606
284.03583282772405,6.8396649212524165,863.8872601754933
312.591965655958,-0.6956320456017091,911.435607470441
362.90578332050194,-47.37030484416188,928.0457648636386
382.8738662030358,-19.313730988665856,1053.8359174641698
356.89149709635814,-20.725630057155097,1304.6249228839615
280.3373221232531,-135.73442510949204,1786.5937909479792
319.291501175223,-275.9515226912351,1717.0083565743657
372.63591542473733,-148.20453467799913,1340.6209052020824
462.1466045999399,235.52997200878997,1065.939948912218
513.7891124899941,532.8975746049874,1050.0119816655026
513.979799421821,559.9781780730423,1049.9202072063347
453.5351011813413,436.1815706688829,998.4143412888194
383.4500058633683,211.54828611197507,911.7812912666407
381.02512070890674,118.2544497866244,861.039192792646
429.21079063696584,117.38871072180613,806.8198620323965
500.89786012552713,189.81609418098944,748.7796546221188
575.9204213467393,227.32635507538254,683.0579249794782
620.0904488280912,222.58773383367412,624.8667995696798
678.5558778991807,174.9690261200308,543.4863077605503
789.9262235319911,81.32501924714353,553.3194312022965
885.1452840674442,37.81984673665319,531.3445468126221
923.679340039667,56.83174172627758,527.933596080211
905.4192818138713,161.50469324387026,535.1552263005207
814.5707249672416,239.86682506258512,564.9278805708371
692.676908016499,287.51714397883075,594.3375158693336
601.7763456430076,280.90428433766886,640.0942217780793
567.5322357787828,227.21520600816794,663.3101007989477
552.6647733935646,188.8524623597253,686.7645934136531
555.2640300204454,184.64613298119136,651.4956687553854
555.7545135188878,196.35451453860395,663.2377009478263
587.5084763910205,211.7970968679417,687.2091896825115
621.8627156062469,203.72298389358244,679.9019033003116
602.7593520723184,207.77533612395675,683.5259747212351
590.9265651369225,207.7957304482163,675.4997884088859
521.3186970066232,212.13156378579842,666.5935870047366
473.1126327543045,223.5819571413276,606.9626223022134
449.0381526821086,223.52077416854894,579.1304879851938
413.72945909153486,250.6646000418084,554.9621940214039
329.79763731753457,294.01171653928714,569.2575956111415
311.5936634834526,309.8754416645848,596.4034609168269
284.0908975032249,376.59955234458255,678.1836814814438
256.9154604273631,470.43995656008934,763.8010941554967
206.64752999240315,529.7079022907925,857.0398658053465
178.3198135958763,543.1548999913325,1037.1023744092022
135.97507813575484,290.600765806876,1312.0484569144407
187.89596855195202,-63.626620711456006,1549.4893771063514
127.24426792023782,-166.1739737830962,1709.8397515971308
107.62084911769055,-119.77178751153556,1689.7615393635956
107.2680273080002,191.9574982282431,1504.2547658986505
159.11039957579808,511.5508354025076,1378.3606022443955
204.97519540311936,683.8879739768423,1221.487460039871
250.62483110950228,690.1102823084336,1092.63611936798
303.22077365869086,549.3292816609138,972.234147236824
338.02164857520154,443.8233239689395,886.769691994718
359.6447308713985,327.4125210953792,867.8631336898942
367.2426363742971,311.87816430687343,868.0293474326097
378.9387813371539,369.7511382582228,860.160197417059
394.4863944364284,504.83192527519594,836.3895927763305
432.6095047748212,600.9789275644589,805.2393019022807
443.35221507854374,600.6852492951213,781.853130273845
419.7141735455023,527.3574564198784,781.7460600714822
412.6373430274355,384.68488219728454,829.2169089342437
419.5020725732029,226.0761829982716,837.7040069748591
438.0089021225393,117.60285112653149,838.347447905248
447.1323030800529,164.241611559503,869.724115778579
476.7489407697838,288.2768325574993,920.769069967828
488.77241463700653,353.95675383540765,920.7272616030959
481.9372568614155,361.95846695864543,944.1460641503471
474.1211320889397,385.16210938495817,936.1015229461643
461.9610162491779,377.37657609887174,920.2469752667834
460.2968393895979,411.71653928711646,865.1619054417156
478.00931000902455,422.7631250223063,818.2937088608242
507.5555872800601,395.1706240153366,787.4330173912601
506.22077875727194,321.459417844014,764.1141470328809
507.8666007250183,259.08541652858014,713.3282007617281
506.20446329786427,216.18799488102465,674.202709385978
509.75919401630534,134.98289426052733,682.378793981635
508.5885598038066,65.17526372410559,662.973594448665
549.8595340916625,-16.532047131283363,648.1693544686515
626.0568083902251,-44.37927324825502,629.7808120000205
671.7258187046546,-29.432476941667137,610.7916566819455
706.5144570266095,24.393447303615407,603.282466489576
667.269658853941,97.88888152427181,567.1243492935916
610.8844508573264,164.34256346458784,593.5278611962292
577.320491707158,207.37152850361747,616.4276281910745
599.8704960409518,125.95024804596882,617.0404776350742
663.5823650278129,-33.34431227789307,598.9089036521136
754.1311253078269,-134.95332249035096,565.2868206778054
806.5241443306329,-85.55510801343988,510.9604197151933
772.6318365598854,7.596222971147131,514.0623964350722
709.6551829625816,194.10909943762653,547.8119439360028
669.1744887397838,310.77177221579234,578.2086645286618
651.3253761478181,299.6905161293612,621.1499339733753
630.0622536748024,138.1348370748421,707.7177221579235
581.523761937053,11.469462048711843,778.06080567778
540.8819525526047,-30.246108508002227,836.4630123436648
511.8363559421414,-92.34784559457104,789.1410420479981
522.2792696792483,-77.2701177262368,753.9251426328054
600.2549290532446,-32.291149373129464,660.7506131043732
651.3947168503006,-25.688588865718675,579.077462742119
661.4827693452913,-41.59483615709748,540.036607812046
609.3630342675634,-129.54270826429007,610.1951226973534
397.2518648060245,-31.278367230399784,1026.619691739789
382.7933086222105,-69.53873137105944,1061.8508868981764
324.3809047941958,-395.51426837911015,1332.8812591455799
426.8532067525608,-509.7031096245915,1201.3582619956867
504.67896784324927,-647.267925336379,1030.311064430769
598.7049604095181,-634.1400988105012,851.1397877970562
633.2468274079324,-499.2765113468922,819.8049282884575
612.2314959746703,-341.22865606501716,736.5400009177447
561.9707035532012,-228.88856031366473,707.9359414275008
593.6685820336202,-124.63685356365325,711.9842147930232
630.17442245823,-20.175085273768314,743.5750230710794
619.458224776045,41.91645465067072,754.9795291970245
597.1539720495787,119.5382724987636,762.2327706199366
554.7103241167983,150.7466871969531,753.6416615255974
574.5223904187466,189.35314302029747,761.657650675817
609.3936257539527,216.16658084055211,762.0900103501197
672.9851682276824,220.0384433012293,817.9735179699491
684.4376010156375,185.16414881738413,822.1880050781868
683.8940922741202,107.79012200904491,822.4408946990054
703.1626498345511,11.094206482335968,842.6781826617653
695.0212355901353,-50.74587142398271,842.7648585398684
680.2424885154462,-24.4305649737678,744.3398102308129
637.0870786660074,137.90438121070906,688.200353841526
600.4027879041264,343.34660663937234,698.731982889162
577.3347677341396,447.80939464547026,678.4110781969379
547.1888973298732,409.59960842897425,705.5610223674753
528.3883895111991,263.11329556984293,748.9438289324082
565.4826061906972,38.464307383255246,754.1821111184759
617.9633208078193,-209.4823410644818,763.6542550208278
678.775116884971,-310.57904585153955,760.9815788266126
698.2873866203037,-275.909714326503,761.1569700152448
714.4345928528091,-132.95467871291422,753.066541581478
687.8393743021318,-1.3461783585628122,736.5257248907631
676.4420061896775,60.57430417114917,728.297634768244
644.9868201679474,68.37870220717575,708.1765944537636
643.895723820061,68.10511234723377,676.7642365129785
654.1469309091281,75.41127704159933,637.6469028669322
649.1207496953599,63.56115493058283,606.2151703181005
641.632973543463,36.64227845390628,617.9673996726713
639.3080205778732,-17.011211779761695,673.0585877950168
654.6425129886354,-144.5926998516313,697.2656309748998
669.949473061647,-256.73395094145303,717.4968006403819
653.4188535330618,-318.68578974471404,697.8346326217414
684.7649299200034,-322.65554496183717,714.0165092054882
718.7632881769005,-284.47533051551756,686.9246888590907
731.7136840817201,-241.7349451647607,718.3717171511169
724.0321618493574,-179.87895968551956,706.2738040003468
694.4593719567845,-156.15424227437506,737.1477517806795
683.25371049237,-183.0094884593618,752.7687844472883
660.106152457771,-186.6998414341289,752.4343175294317
640.7560176003019,-178.84802659419887,748.1933177996565
603.5853222048305,-158.89829860349866,782.8912013786563
587.7888983495894,-155.01317983205274,770.8677275114337
581.6083983827302,-112.09026527917281,805.9520835351523
570.4832944991409,-69.410858957952,809.565957793946
554.5512483875739,-26.94110629011946,785.636277423993
523.449903891747,-7.462058909005624,773.3303421657754
527.5206110139549,23.457959649829455,773.2875140848303
514.951588972789,15.570352770823881,745.6532047131284
515.9060433481362,15.8097821376311,773.1386355177356
543.3986121662342,11.869598690684384,789.2623882773426
582.0968424487467,15.475009304910445,793.7552579117233
593.2759912916237,-19.46699433547644,790.115890747605
609.890227549673,-42.456394385442536,829.6880178246395
620.796092447472,-58.15737280314889,814.2056665629956
609.7270729555966,-84.97815258013695,833.7536263657826
597.2957126031827,-131.45059729877178,818.0255234968109
593.0332988329349,-150.83234335884325,810.1777875217327
595.7416650946042,-158.8738254143872,778.849046310412
597.0509807120679,-166.26880739090313,818.1397317126646
596.860293780241,-174.04006465000793,814.238297481811
592.8976765766088,-170.17635991903455,810.2410099269374
588.2804015642447,-181.9234906925403,790.5890390704268
596.1505712960084,-178.0801802858265,794.6179378279026
608.5299261215605,-197.27327884649705,822.3409625101336
591.9167095797239,-193.59414275007268,786.7579652582688
575.9846634681569,-228.36136703155512,778.7878633376332
596.0975460529336,-205.12713311885307,798.6335802746097
603.2314806789271,-209.19172194378308,783.0553756889459
610.4745249397093,-197.78211723677305,767.4272050088462
594.8422753947577,-189.9945445182606,759.3174019670327
618.5078492655495,-170.72700667404266,771.3806447665615
626.56870592914,-139.802073083061,775.3218479297212
617.6349721872404,-140.05088383902762,739.8673349206917
621.0795735546798,-140.18242723050176,728.1456970525104
613.1268068096649,-136.3228013643803,720.1643782535322
643.8722703471625,-128.8574589691689,716.6749093727217
666.7740767744338,-102.05829717589596,705.153135882284
682.5429682919245,-109.81119954316715,717.1898660602754
686.8064017783852,-129.04814590099576,733.016881401906
686.2883859421923,-144.6253307704466,721.2881055202338
674.755395573412,-179.28650456577935,729.0807768198111
666.9402905171492,-194.7015545573667,729.0165346983936
651.4446829447365,-206.18865769656307,728.8227886179277
659.2057430417116,-198.51121432905225,728.9135433608827
651.142846945695,-132.88839715907065,705.0236319232358
604.6182947285771,-11.887239781168901,782.4109150423438
590.5115406382405,96.69285637806999,797.5312670483805
569.5410767183494,248.02557448262152,828.1033788296718
555.1620583991476,356.5366358542418,835.3719159957784
565.6855297170798,344.6018772975481,808.0975664472578
618.990175034288,265.78903091269706,695.3475447782882
626.3708809838223,219.30526734409818,695.6147104260885
691.7459071140503,64.28974216475555,724.5889269016434
701.785013230818,-210.3766321832634,737.4404103338042
670.0371686559631,-554.0781000647521,781.295345505346
632.527927477783,-917.538609005114,774.1104250687034
642.4018395680483,-1138.1766454395743,771.077789051307
661.3165556025758,-1207.9354315693945,775.520692591252
657.2703216694795,-1119.1283465811466,751.6134459779844
661.2818852513346,-883.5402507482169,707.7075249957937
591.3701416895678,-651.4283674853289,643.0830099983176
579.0611472827113,-480.60652720347935,697.2676704073257
545.1912732686494,-151.87347361229374,652.4807146171221
512.8356778308598,-117.26124619518389,600.8586010513275
437.4062498406694,-270.73159539700106,678.7394268175168
414.81545685835636,-472.23465709493047,624.1356630449746
481.2071400529233,-527.5828137029465,550.7487266293791
577.7151218815804,-509.97027527239175,442.24582298746265
678.5936073990609,-457.50077753361245,341.5396695099754
744.3846777441839,-501.4138365292939,248.48240734603564
772.2688175880653,-571.9037591838193,178.4952047845085
809.3579356864985,-603.4588773944212,143.8350507053887
822.0901123217409,-553.0502261220703,167.40375153594755
815.0917999520734,-510.3322745279989,178.92858417502413
821.8963662412752,-425.65605991852476,135.57432966405452
836.3549224250893,-368.08594168242985,96.35033370213071
873.6071951175988,-318.50020139395207,49.64559763017952
899.7078513049819,-288.0331203825976,18.536809205997972
899.8710058990583,-284.1296467193181,22.45068397464986
883.5035409645498,-303.5593194413995,-1.276654107161977
884.4865473938604,-357.37994116237456,38.1658364477166
881.0704980803843,-411.30661336949936,61.844360714413185
892.2231343017239,-469.4273783606023,62.20748165785463
897.6939117843505,-497.08106234035074,3.513381226004803
905.4019466382506,-535.7588982986035,11.608551340162034
914.4539674608557,-563.5104750347979,-54.88082066760821
910.7095695268008,-548.0056900164685,-54.989216501047764
902.9474897136128,-536.3748068912422,-59.06930501241505
895.8676000469071,-505.26224551707264,-47.50643695859443
880.3169277989937,-524.4869552803456,-47.67448619049319
880.8634956891499,-543.6596595167565,-27.97856556520321
873.9202479949831,-570.4414861344089,-0.5198645816869166
867.4409711777214,-589.3837345066869,38.69323367306879
852.1911152126363,-604.671319971652,46.36557845951472
841.3668276118757,-615.9830319222161,69.78927564458812
835.1322826857287,-600.1070702023627,108.88835637042213
811.9031473540914,-615.4028133970318,108.59263866865852
781.2127484920948,-653.7492415860667,120.03589401069684
789.0288732645706,-676.9528840123794,128.0804352148797
816.547954704206,-657.7149179383379,140.20180183854836
812.5588248790363,-657.7200165194027,136.2167508782306
824.5272340707583,-638.396394283471,144.1807345015882
835.7328955351727,-630.8515140236473,132.548831660149
836.2233790336151,-580.5234203321216,136.31158448603756
824.8260109211607,-557.221885149363,136.06175401385798
829.115957029159,-553.2806819862034,147.88638321955
806.0764889131356,-541.4958217128175,147.50195020725732
821.2722999189326,-533.9458428719288,139.85509832613585
822.0350476462402,-522.1681206120338,159.44996507471973
811.9194628134991,-490.8220442250922,194.51392677417877
786.6896442719992,-455.41851702671147,237.18701085487913
760.9978942860203,-466.47428020781825,276.08612523134815
743.175294315592,-473.6867329822111,319.014138365293
743.0937170185538,-485.2931429183259,319.05186786517316
732.5702457006216,-492.66773057058225,350.3163669550765
728.9890023606431,-473.2604916051863,354.1219478619101
755.5546491411442,-473.57048533393163,342.7470135061413
759.9802175054683,-450.28526561058067,354.5084203066287
748.3095654479359,-427.05205141409147,346.40575527830606
718.4094466509971,-411.1342813295061,369.45236140782026
714.6915613384796,-391.76069299913837,369.33101517847587
712.8010074796185,-383.5152677009989,424.2192797744388
714.0827907593318,-356.160360571653,455.54394212090784
712.2462818597585,-320.8669627242739,506.41758398637666
713.2282685728562,-316.75954581839875,533.889758480215
674.4759933310561,-347.41119546430235,533.4135510087543
659.9073077962404,-343.21812239653707,556.7283425022817
679.2554032212836,-293.141898609617,548.999913324122
659.9052683638145,-246.67139135178684,536.7796342277944
667.6102440690756,-169.49315005633935,520.9363034267565
667.7744183793651,-165.5906961092728,524.8499742521657
574.9476120795583,-201.58871785981964,743.3598629501411
489.38118521615445,-578.6022749868712,908.1837324672545
309.28196682863165,-705.2653046657116,1294.448155078442
282.54602744056336,-742.6195489795191,1419.7610804912995
247.55242615979975,-567.6484834270623,1485.3696216342994
471.2373746386382,167.29974048222383,1231.144172576772
602.9072109232001,679.0881697623553,1035.1547164424142
535.784391203928,895.4556346968641,943.1528605589065
418.90145972375893,791.7555944180735,926.0532393834798
365.8109548112761,578.986707999164,882.8050353586599
401.37763660373327,350.0920293882213,844.8634345061771
446.4766255551081,206.5577949656611,842.0989838527938
492.1476753019635,144.26741037969134,839.0683872678235
536.6980569307563,155.07232337240546,788.6791106035191
589.8007984377948,150.58149317045067,765.9424982027502
627.7627936145371,146.27829075168384,750.8272447777784
668.7604839573147,122.43120739498198,716.199721617474
680.4311360148471,79.88813713143632,728.2915164709663
661.219682562343,10.536727628700934,743.9370223266866
634.7376525113061,-35.474499446803954,767.242636374297
611.4544722203811,-116.43629577888476,778.9408207695799
607.2756751795976,-201.45003645485463,787.0149337439392
598.8334446523534,-267.2278504892089,779.261011660455
602.4422203300823,-302.0756323515166,779.4323239842353
620.8929654877048,-360.3575125042701,768.1318289120138
612.4507349604606,-387.51663412072423,752.3986274619774
615.9504010034008,-418.5302830222349,748.6307760550241
599.0088358409855,-422.6560548199437,705.2194174361276
594.6638250574866,-395.7161721892798,685.4410017692077
567.1712562393886,-372.466642533383,665.3270994682181
590.7542330969292,-306.8764562822167,665.4596625759052
606.9850560588989,-268.17210770242644,681.2703624581279
598.7324927472685,-248.93924020944976,661.4593158723928
606.0030693458011,-233.66083219040144,645.8178888815244
591.7617127153515,-240.9721974374532,680.951191283466
623.2444310748319,-244.90728230333502,701.0589752871776
632.069055181943,-260.13368479552145,736.5634543906432
640.9222313430173,-271.49230369188257,772.0567166157659
626.4626554429904,-271.1333635849144,799.310671840027
614.6288487913814,-251.80362305170473,787.2943359862951
600.4140047824691,-216.62647285260513,814.4351027109157
596.860293780241,-193.35043057517095,818.2284470231936
582.0183243003473,-150.60698607577513,825.7111245940256
590.1067133016883,-115.81324917275523,829.6390714464166
571.083907348585,-80.8460585419078,829.2362835422903
556.160360571653,-69.01826821595552,840.7468401543853
525.0600357920391,-68.84858743811598,832.4310544375502
524.4869552803456,-53.54468651374323,812.7474723784371
532.875140848302,-34.123783351093394,828.5061667337981
533.1208924556297,-37.92406173361954,836.3722576007098
533.339111725207,-26.283695247612595,840.2604355207947
548.8887642569074,-26.368535636532357,844.4188382373187
574.7997532286765,-22.98175217836876,813.3980513223171
586.1145243278796,-19.27069896447819,805.7063319278245
605.6002814416748,-46.39790346346612,817.8633886189475
600.7933392136969,-65.91700529742573,794.3099835315833
604.6743791202908,-100.69687405994912,802.3341304115066
623.8062947081828,-139.49819765159359,806.6760820463667
627.9595988436419,-154.9010110486252,818.5639336572632
633.3222864076928,-198.02888856031367,759.9210739651156
613.074801282803,-259.91648524215714,744.1277092585134
604.0054452845774,-318.12800497621515,716.7156980212408
619.2553012496624,-302.84041951125005,709.0433532347948
608.1036847445357,-264.02900072909716,712.6704838043573
614.1638581982635,-163.0964702523288,755.5913589248113
578.0812000020395,-65.63586953750772,805.7420219952788
594.3946199772604,-34.63404934406755,825.505141919004
613.6621578214783,-54.092274120112386,829.7838711486594
605.4371268475984,-69.61031544921049,817.9388476187079
607.9293132721165,-166.5288350252125,798.6804872204066
610.3654153049207,-193.947984275976,763.4880412781124
609.0010350119563,-174.98024299837357,720.2326992398016
602.0659450474934,-168.00028552053968,629.8389358241602
597.1764058062641,-179.81573728031492,602.3331106952935
589.6621170328299,-229.91235539149457,618.0877261858026
625.2716269062321,-291.7377493843464,658.075897477732
681.8750541724239,-365.860920905712,639.550713036562
716.5301096704789,-408.61660199966354,648.0633039825018
693.6813284862824,-389.06048446717284,651.5803052010626
628.7356028817181,-341.0736592006445,768.1838344388758
607.8681302993377,-265.9572840878384,928.5270709161642
618.9106371696757,-262.31485777508124,912.9814972493157
603.006123395859,-254.59560604283828,897.0188596513591
564.0896738437693,-250.53101721790827,884.6486822717239
555.8626034374635,-169.50232750225615,852.854950467285
561.1702263260134,-201.05948514528407,790.2474341390791
523.999530930542,-200.41910336353396,828.9344475432489
446.9293795536703,-141.8955504683047,815.8086604497969
461.25231348115824,-180.90785334441426,792.6070574559102
542.6460616010564,-101.31084519178313,679.7438472873
681.3223679849899,-37.738065496372364,556.0186200180491
758.4791952399648,84.27322276210532,423.32600837187016
799.1750495837009,191.65464251298866,352.92989960893885
756.4326248005182,180.30724049497027,344.4784916357778
732.7334002946981,65.47995492854339,462.2495959374507
708.5345148445189,-36.89047738014511,674.1619207374589
704.4821626141446,-78.39506865239404,788.0550442811766
806.0336608321905,17.720424405887844,808.87560991776
827.6801966012861,117.58143708605897,746.0692489280234
756.1736168824217,0.7258350201139024,596.256621782158
686.9828126832303,58.236400809654675,477.28735093023613
608.185262041574,109.59909857086774,526.9536487995391
452.6785395624398,-19.86213436800539,623.1771298047754
309.2860456934835,-212.06018365089,637.3756583542801
206.7525607623399,-158.68109905013438,890.7598415361006
237.49598486741144,41.006357930587924,1180.974134898258
555.0876191156002,112.34519433241731,1216.878342757211
785.2630612900431,-94.37942620568697,1232.806310003926
770.3578694049447,-150.1919615770931,1036.5313333299343
666.481418221309,100.68025268567759,877.1486695252711
537.1579489428093,336.69703721454323,764.5261123829239
511.6344521319718,459.8532628369525,669.537507711604
547.7160906119827,401.0115584832742,611.4065455583711
536.0301428112557,280.35465729887375,521.3727419659109
519.799319849286,241.64928900287052,505.56102236747523
520.0705643619382,280.33630240704014,505.43457755706595
534.2486985871832,323.3846420541164,572.2208909260554
525.4974940474067,277.8359582528183,662.50962357176
544.7568741619208,282.5429682919244,772.6716054921916
553.3000565942499,291.4144993448324,906.2065027302904
561.7698194592446,322.4414045571118,921.927467585771
587.2708825133966,345.0352566880638,875.1377891532787
590.5247969490092,337.1304166050588,859.5147170542439
621.1886831894684,332.9893490641555,856.0629776733136
640.2655341018595,325.0692132379559,852.4511428469458
602.9836896391735,387.47176660735323,875.2295636124467
556.7415988130504,426.4473596997956,866.5568772210695
563.1117659955236,468.53410695803365,819.4143769788868
562.5947698755438,433.6465561634198,811.6747309223844
554.4258232933774,348.628736622598,815.7637929364258
518.4104663672101,236.56600368117557,799.9041466759802
483.5137381266794,109.33703150413241,819.4337515869335
478.3804867105485,4.77482116726915,804.0115635818553
485.2696894454274,4.510082444055819,780.5672681292797
481.0613206344675,31.48404399055743,764.7147598823249
481.3070722417952,27.683765608031287,772.5808507492366
486.79620461625535,28.06442567033595,819.7570016264475
479.55214063926013,93.89230777074741,819.4266135734426
476.95084457995347,194.6454701656529,834.74581024101
479.3023101670806,271.4770079486879,775.6532556989391
474.40257376372165,361.0651955560768,838.071104811531
484.6272682312513,325.8829467759123,806.9463068428057
512.4481856699282,291.12999852141155,838.8766806197837
561.698439324336,248.05004767173298,824.0612237614273
594.5720505983186,190.39733242238685,895.3913925754463
621.2478267298212,109.0137814646184,903.915200399729
515.3156276608221,79.44486649365483,965.2215588401749
470.9906033150974,94.73408350456069,905.6375010834487
465.06809155012166,-64.093344822136,878.6119622908944
519.6280075255057,-215.96671646280845,817.1475478374368
508.3509659261828,-297.90295360801093,730.9132068545325
491.4654851554813,-352.22017712470625,699.4468039544596
443.5887892399546,-410.2012409946313,663.6037790682853
413.7162027807662,-467.65205243380774,702.5967073363483
391.63220875630316,-474.937924775535,733.6868349538324
372.73584761360917,-357.84187260685354,831.1247979687255
378.5502694600093,-233.79951359536645,862.1904523970979
406.42217270933503,-125.64943176314033,866.1673456277118
442.16628512285035,-110.20277056895067,894.1228656065018
461.02695619809015,-207.00137151830648,902.5814115931538
479.39612405867456,-276.88966160717473,891.3186460208125
494.8652190095497,-307.89005419791675,899.5039080623864
521.321756155262,-342.98460738376514,892.1690893424361
505.8618386503037,-336.1504693243871,778.1005746100861
496.0807207354194,-282.5439880081374,707.1303656192483
501.8492553522355,-171.09512422692765,628.3481107207865
540.0274303661292,-67.21061728520954,597.1723269414123
553.3663381480934,44.145044434133986,514.579392555052
566.8439273350227,20.369035297476717,463.8413729459092
537.8952037647923,152.38333171878267,490.43557178037355
553.8884328491382,343.63518632764504,690.184721591981
628.5306399229096,461.2778063864827,930.3085151402366
664.2961663768974,350.28373603626113,1096.0521686814561
632.6543722881923,176.531231358313,1107.9420597247788
606.0907649401172,80.29520784365712,1139.2575446253309
554.8245323326519,49.49284414147543,1111.1235743092698
484.67009631219634,73.00138171546858,1082.520534535239
487.9311487612998,118.16981334094721,945.0576904447493
538.6334783029884,178.72871979728043,839.648605793008
525.57397276338,159.13283333248359,800.2732839450782
483.5422901806428,74.58734634151317,827.4007943589299
408.08329042027606,-24.822951772521712,893.3244278117401
374.9853415794385,-89.81028179857547,951.9173214094518
386.27360005710415,-128.58723417272975,952.2171179760675
423.09147364288526,-160.21067336960124,909.7041293408047
452.99363187225003,-253.36582828998692,902.6171016606079
430.25498003905517,-276.26355585240634,918.0525459764548
375.94285510342473,-205.42692968546854,1003.3416100299288
402.85928426119017,-58.89778874539217,971.8537930893834
439.69347330637885,-23.868293453931773,1027.2315214675757
470.65919554587964,-82.00037729499881,1043.5877695237416
465.1149984959186,-109.42778624708745,1000.4293005256638
445.60374847679896,-144.09813748833702,1000.2539093370316
413.6295269026631,-113.25172204575468,960.4237940581138
385.94525143652527,-39.845614965355146,924.4400483345486
384.3075871984827,17.672191829013986,865.3525923735425
388.7035837926305,152.94519535213354,853.1883976689289
445.0857326406061,240.9660791401753,794.8667485838691
446.2859386232812,218.09588391550636,834.2074000805577
481.1857260124508,190.85008642094905,846.5959323520266
506.6878087828158,155.5148802088379,811.7756828274692
509.09739819408264,104.91860115329904,780.5856230211133
512.1881580356187,73.80196091427757,765.0390296380518
496.745575706281,127.98050302600788,752.8503617443266
482.8029959262338,182.53532042032705,783.8548331999206
449.94977897651086,171.6753427521121,838.3433690403962
447.7043638755335,187.55640305303035,881.4273987549267
492.3383622337904,132.7293214298461,846.9589513238467
537.9533275889321,120.62936884665,831.9854384524787
537.679023927641,159.17974027828058,816.1523048135705
471.95321542014864,128.73611273982453,815.2702502893446
436.69958650507573,124.9988528192604,799.0567625029955
406.66282573559783,102.26326013470454,826.155720862884
419.1502704797255,117.85472103113703,849.8376101930833
429.09352327247336,126.07975200501703,912.7530808176086
465.3923613058486,78.87841413734559,858.5113163006736
503.8193470757089,5.177751831665248,871.1099101120159
499.9311691556241,-13.114468243487838,984.9265549397604
477.2435031330781,126.2010982343614,968.4183691678608
542.1413020756324,257.843402181173,1035.6645745489031
575.7868385228392,226.42084707825813,1012.7270780541776
624.3569414631909,105.93219906899911,994.2386033966748
626.5217989833429,1.2074663621114246,967.1518816313421
593.950023708402,-33.7492415860666,923.6110190533975
554.0515874432147,-33.79370121295244,883.767647463711
554.0872775106689,-15.471746213028917,769.8918590956138
566.8000795378647,26.212722999189328,683.6004140047826
567.289543320094,115.15961108023637,679.3828677479058
572.7225913028404,204.34908964835088,706.635803255954
593.2708927105587,250.86446441955206,734.2588957493131
590.1801328690226,262.6717584496235,753.7956386737573
617.5911243900823,227.81581885761193,773.947270474627
631.1513105902628,196.33615964677034,727.1606511907737
618.5017309682717,157.5339183105342,703.5542208603347
618.8015275348871,142.16067668367896,715.3849683633046
602.5707045729174,103.4563281038887,699.5742684810818
630.7179311997471,95.81824578219883,735.3428540837085
636.597614883778,68.26724722509726,688.428770273233
638.8430299847554,52.38639086742161,645.3447405587026
670.7611671671774,52.42187699163323,677.2200496601796
677.0497570526123,63.592358246699945,634.1054284592599
681.8036740375154,36.75516103868294,665.6646255347138
684.7588116227255,-13.70478195918076,650.1802348406438
718.5409900424712,-64.4028286927748,635.1587953072661
733.1096755772869,-107.21500206492534,619.823283180291
743.2517730315653,-96.0739906084137,576.766785803511
759.5101283312855,-53.50022688685739,592.565249091178
741.2245772001653,-29.933871403588384,615.758694355361
729.3907705485564,-10.603621012272285,603.742358501629
744.150143015199,-26.334375143397594,588.3181310641249
740.4608097566448,-22.401635624805618,592.1746977816074
760.2993886801304,20.0739294254409,600.1774306210582
748.7388659735997,39.47260277464782,596.0139293234694
741.932260251972,32.034078915837725,623.4096251013343
737.6423141439737,28.09246786619284,611.5849958956424
748.7939306491005,8.591200868798214,603.9687355009102
744.8588457832186,-2.9852090163307556,603.9483411766506
741.3877317942417,-6.721571586627443,615.6832353556007
733.2167457796496,4.807299128652496,599.8235890951548
741.1970448624148,-14.493226535055296,611.7818011247471
748.2769345291207,-26.295727898925733,596.2290894444077
748.495153798698,-33.96470762186884,604.1074169058752
759.8915021949392,-37.956998567298726,600.3670978366722
750.9302361152892,-42.074000805575814,564.9248214221983
747.4040574508116,-14.928951272860765,568.7059291399204
747.8119439360026,4.483049767249775,576.4955412908588
728.8992673339011,16.30638393335135,584.021046942636
745.2942646061601,39.604961939092355,607.7365869078636
722.5556127729653,36.01739635859341,619.1818816823279
738.0512203453779,28.195153288839723,623.3647575879634
746.1396093467189,43.678932153181776,631.2828539817369
765.2694855021849,101.42413566304499,615.6760973421098
784.3177843606126,147.56313318003603,600.1070702023627
768.2756088980437,193.86742669515075,572.238226101676
743.1283873697951,202.25765169553316,622.8538797652614
705.7670050424967,195.12575650196553,657.6394589385775
678.3009488459363,202.9347432609505,641.5034695844148
682.0188341584538,183.56115493058283,641.624815813759
713.3904034507198,241.38824165234817,645.8240071788023
737.3292612665896,280.0334466917857,661.7509547093044
736.6195387823569,314.61304319008025,634.1513156888439
712.5705516154856,318.42066352933983,606.3059250610556
688.7408034344043,314.56001794700535,586.3388618947348
675.0531527076015,341.1480984841919,519.3251518102512
660.9209057119405,349.3129662015062,554.407468401544
681.3886495388334,326.2938924097424,594.0377193027181
683.4617325998175,311.3662667679585,656.9134209949372
661.2135642650651,319.48728668811475,680.1007479618423
615.709747977138,231.20535554955057,718.9631525546441
622.6825674414811,126.6905620165908,719.4199854180583
612.7872413107433,73.13098764613808,778.3218530283023
617.0761677025284,96.38194490473303,786.1563326926117
561.6474535136872,85.83777334767736,856.0048538491737
551.5604207349096,43.81577806896341,907.0161574033948
446.11666573192684,103.1932413209404,964.104969586964
389.1950870072859,106.72553828269595,876.8988390530916
333.8663050073165,20.83759489734007,742.9234244109865
-21.7648228498009,-116.6055686702391,1067.7244522849294
-36.443433792375586,45.02556938404042,1388.78210194103
443.73460865841037,234.02385116222158,1312.915215695472
806.0295819673386,345.10867625539817,1074.6483253710494
762.6671697266652,355.7810261404252,932.6732370381324
544.3928354738877,333.6531843188041,862.7594540439396
456.04462278148,290.93115385988085,767.3894755089659
511.3122218086707,220.33416100299291,709.5868619763121
554.4451979014241,203.75051623133285,623.9470155455738
564.9686692193563,249.7437963014893,584.7032370891181
550.9261572504372,283.96751184145455,505.88529212320213
557.1596824603713,287.39987661433827,462.7961638276068
570.8198008494237,295.5616851830136,521.8418114238808
568.2919243574514,393.4676979396634,650.9868303651095
543.8432084350926,526.6110241519785,807.1563683826791
500.42675123513135,683.1486797224333,966.8867554159679
497.5552303793854,629.3586494878476,1006.2712547098143
496.22144157281036,517.0287508986249,990.9316637179874
469.46714729290846,451.6394487414153,1010.3745927508377
448.78220391265114,424.39976954413595,974.8354432961308
420.8797091769361,466.855654071472,938.9526494776504
400.9310009024489,447.52387410583634,923.0206033660834
384.1831818204994,373.93197473143226,899.4702574273581
370.388460891334,288.4991306919284,852.4562414280107
414.2862241438208,206.45480362815033,802.3708401951737
438.670697944762,147.66816394997272,740.1406188657697
437.934462838992,120.44989879316589,724.5226453477998
472.58849862083383,116.31392983332739,725.0559569271873
446.02489127275885,78.00553705903648,744.4101706495082
454.6323158265056,12.51976974807911,784.0067709156543
462.77678921956027,-22.18718930521636,803.8688033120384
441.0201240994632,-79.59486674858388,854.7567212044889
460.61601056426,-110.55661209485402,870.8529416263456
453.1261949799371,-79.54734797305912,870.6357420729811
471.81963259624854,-25.773429254638437,843.2624800518016
472.58238032355604,43.932025717242894,850.8879178924507
442.0255642854594,121.47573330342168,842.319242554797
405.5166647122106,132.87106198345003,786.789576460871
410.24304935936334,140.78405979615874,810.3807110481154
371.08186791615896,90.71997063217307,802.1138717095034
337.13857433476267,21.658568420408603,837.1604982333417
358.8972788872857,-56.09968745698073,814.2005679819307
389.1532786425538,-79.65268465785972,802.9592164500621
428.23186307250694,-21.885251334553598,807.2746554633846
466.1010640738683,82.91822385830025,878.131675954582
479.5970081526312,145.10459739054622,921.2942238175117
496.42844396404485,172.37486807421496,956.7762691642918
524.1382123355071,180.0747451984113,976.7881998439835
567.3721403333453,183.8211825648922,1000.9707698347551
581.9673384896985,183.49691280916522,977.643741746672
608.6135428510247,233.41100171822185,958.2507788082578
580.7936451285608,229.5452575548225,934.2996843978322
572.187240291027,198.4847017075148,914.6528121223865
515.8407815105057,148.0944053269975,855.1085232979663
467.364492461748,62.92913482177911,807.5744520300001
481.6884461054489,4.608250523879205,788.362998577496
453.59730387033295,-37.94466000112169,764.5383489774797
460.56910361846303,-103.84076111618137,757.0148827581285
483.8002783825262,-146.4730565483626,769.28104908404
489.39852039177504,-111.30814294381875,812.4170843254323
494.5858167671937,-18.31716233372253,831.8039289665686
503.0820922537259,74.5068907323092,835.5432283195588
499.9372874529019,97.88582237563287,851.1153146079448
518.8224317172532,101.50316366955077,839.6118960093406
499.88324249361415,70.8389715142276,855.1309570546518
503.51853079288037,59.1688293148017,851.2998832424937
503.0555796321885,32.01939500237084,843.5347442806667
487.4508624249872,24.366730738835386,839.4028541856803
491.1412153997543,20.434093191864708,835.5462874681978
491.19526035904215,8.862108875100061,839.5109441042558
483.6789321531818,16.693264264555175,843.2961306868299
491.82238583002356,20.605099600781106,855.1788837166617
491.849918167774,24.473800941198068,855.1666471221059
499.3652266574213,35.952032549341524,847.3913109981493
515.0525408778738,35.90145462517782,855.4756211346383
511.44376520014487,51.440298165020685,859.2934386360278
515.1065858371616,43.638857306011744,855.4501282293138
514.8608342298339,47.439237660159186,847.584037362402
503.08311196993884,35.888096342787804,843.5225076861111
514.4519280284297,28.027206028562254,839.7944252114637
502.6466734307843,12.607363370773914,835.7451321297284
507.0181968358207,28.155078441669687,847.5320318355404
494.9947229685979,20.40431747844575,835.6044112923374
490.86793145467624,39.67511841454524,823.703303370672
506.9896447818573,62.90517149077413,839.5649890635437
491.33088261536824,47.51510454640474,835.4575721576687
503.43695349584215,47.56272529355081,851.337612742374
487.5864846813132,43.710339412541494,839.3396317804755
495.0212355901353,43.58246699943406,831.602025156399
491.41347962861937,20.502516149755525,843.3991220243407
491.52258926340807,16.667975302473323,847.3393054712874
507.1273064706093,24.320639566008783,851.471195566274
495.10383260338654,16.56977663116355,839.5435750230712
498.9573401722301,-2.7693656855297175,843.5908286723806
510.8441720669138,24.25660138783377,847.6023922542357
503.8193470757089,24.487159223588076,867.1197605706332
507.37305807793695,20.52025921186134,859.3372864331858
495.78500303365576,16.74078304007995,859.1761712715352
499.1745397255944,28.180469375372837,843.4898767672958
499.610978264749,51.46120234738673,851.2672523236783
495.5392514263281,39.850509603177436,847.3209505794539
491.849918167774,24.473800941198068,855.1666471221059
499.31118169813345,47.52407804907895,843.4266543620912
498.6024789301138,24.174922119174237,827.7964442495654
499.44782367067256,28.248790361642357,851.3427113234388
507.39957069947434,24.388960552278302,859.324030122417
495.34856449450126,32.078946429208756,843.4195163486003
498.9838527937676,20.408804229782852,839.5884425364421
499.0929624285562,16.57426338250065,843.527606267176
495.9756899654827,24.51244818566993,863.0776055023889
499.4202913329221,24.380089021225395,851.3559676342076
507.48216771272564,16.685718364579138,863.2764501639194
514.3703507313915,35.730448216261415,835.8430248861744
503.1922216047275,32.053555495505606,847.4616714168449
480.2618631234928,40.003772949988026,851.0164021352858
507.2364161053979,39.795444927676634,851.421229471838
487.9423656396425,16.7661739737831,855.1340162032907
492.28635670692853,9.135739523690559,870.9233020450409
484.41618697516486,5.292327145355449,866.8933835713522
479.744867003513,5.116864576588337,843.2767560787834
468.70134041696207,20.78365190967354,854.8321802042492
499.47433629220995,32.117593673680624,851.330474728883
487.6140170190637,28.269694544008406,843.3165250110895
491.52258926340807,16.667975302473323,847.3393054712874
484.44269959670225,9.16104888009667,866.8811469767966
503.3553761988039,16.647071120107277,855.3654917836368
492.04060509960084,12.936017906216701,863.0572111781291
495.51273880479073,16.672462053810428,851.3233367153922
491.849918167774,24.473800941198068,855.1666471221059
499.33871403588387,12.773984999974507,851.3936971340877
499.22960440109523,16.608423875635413,847.4545334033538
502.97400233515015,20.41318900949866,843.5724737805469
491.2503250345429,16.599552344582502,839.4854511989314
491.52258926340807,16.667975302473323,847.3393054712874
495.23945485971257,16.604039095919607,843.4705021592492
488.32373950329634,32.30940229334177,862.9368846649978
491.52258926340807,16.667975302473323,847.3393054712874
491.849918167774,24.473800941198068,855.1666471221059
484.3060576241632,28.436214201587703,858.9650900154488
488.59600373216136,13.068377070661235,874.7798687625234
480.2353505019554,16.825623428999712,855.0187882712241
487.91483330189214,12.897370661744839,855.1462527978465
495.7299383581549,28.312828539817374,855.2115146354771
491.76834087073576,12.86769691994718,855.2043766219862
513.7156929226596,20.118694967190635,820.1873218683243
519.1599577837488,7.9057782219208415,757.5155634187006
544.8527274859407,-19.657171409196824,726.5967481249969
590.7674894076979,-27.82010166570644,719.4628134990032
540.7799809313069,26.660378416686637,710.6810174728374
513.1405729785401,170.58832526907764,772.5757521681717
504.414861344088,225.45517582456804,842.9025202286205
503.260542590997,260.9198859957274,913.4087583425534
506.7591889177243,287.8342757210669,897.672497743878
520.0104011053725,276.58272702706836,948.9285331892135
479.9967369081185,188.68216975215802,1034.971167524078
454.03374240948745,81.01104862516763,1085.9569781729745
450.81041946026426,-42.38205707351644,1129.498860467132
427.8810806952426,-73.05073598017673,1141.0318508359126
394.62711527381936,-108.17863388618949,1077.86043144193
398.70801955815705,-159.35207231827385,983.9037795781435
383.65904768702876,-248.96167396613524,901.5637348126018
370.3823425940561,-338.1266793451383,870.2686442363092
349.5342446197224,-407.88852462359733,838.7951033227455
372.1097418588407,-408.20463664962045,823.4351180066587
393.62065537161016,-366.30551717457035,768.6722785048922
418.68527988660765,-309.06476727526734,702.1357956080824
420.02926585531253,-317.4478542621589,631.5408421836204
449.60307546409837,-341.17155195709034,600.6668944032876
475.8424130564464,-387.90718543029476,589.4438977632526
497.73673986529553,-446.32162869073545,566.4207451066369
535.1001616250198,-497.11777212401796,543.6045948412558
553.2766031213514,-516.8492808451408,516.470966130126
570.3537905400927,-474.07014627829085,555.8289528024352
567.9166687910755,-427.3426705347903,587.0312492033468
567.4975654275415,-345.3513687140869,669.165311293867
569.7327833663893,-279.1381358567911,719.9961250783907
636.9575747069591,-171.08084819994596,748.1107207864052
648.4691510352669,47.07734037617332,924.1545277949149
654.2427842331481,403.8208766500283,1017.2291251344751
607.0880473964097,667.5541596773619,1047.034410323607
519.0284143922747,768.7915853018106,1041.4463654764882
437.86206298787056,695.9787491141216,1048.3192527519593
406.2478012369158,526.0960674644247,1060.1989466331522
392.2358807543861,351.78475830176467,1025.2532720143984
385.7127561399663,223.70228365445902,974.5682776483305
399.1638327053582,176.74741119546434,927.8326441751261
397.692382210031,141.62124680701362,892.6075673140166
424.3396062875702,152.91664329817013,881.1949034583677
434.34608148552263,125.40469987202563,842.1907583119619
453.1231358312982,94.23737973721914,834.7284750653895
463.620094527693,59.12436968791586,811.4554919365942
474.36382454762844,20.211081256086434,796.0496193909237
470.2655850876701,-14.577659037489868,796.1057037826374
508.6099738442792,-41.95632555459816,796.772598185925
511.86388827989174,-69.16979804520403,785.1386559120598
534.9298690174525,-77.08575303493039,785.5108523297966
546.4903917239833,-96.48442638413731,789.6743536273856
551.0260894393091,-96.34319568863987,809.3650736999895
558.3517307133425,-111.94546557692995,801.6784528865618
559.2246077916517,-123.31224220299491,829.2016131910491
540.0937119199727,-142.43905920982192,836.829090464124
544.6294096352985,-142.29833837243098,856.5198105367277
518.4451367184513,-107.13444448410009,871.707463812821
487.6170761677026,-87.5867905961771,867.2553828269594
491.987579856526,-33.420179164138624,871.0619834500059
464.5765883354663,-17.873891695941023,854.9005011905189
480.39850509603184,1.4191594479256424,862.9215889218032
476.3808232168988,36.16484732299002,850.9705149057017
472.9086895117089,71.04729953653899,854.7261297180995
472.69047024213165,78.7162792594821,846.8478022566321
472.25403170297716,74.74499446803955,835.0802771588667
480.26084340727976,78.62256733950943,843.0361030525206
478.9250151682787,62.83990965314354,807.7478037862063
490.7037571443868,35.772154609372215,819.7896325452626
510.16300163664454,24.08559497891737,827.9697960057716
517.5426878699658,16.220217913354716,820.2576822870195
532.9842504830906,0.660527295253731,824.4660510979795
555.5862603437464,4.2138956728342505,809.0938291873373
555.4771507089578,-11.261032054779157,809.1448149979861
562.3388211060862,-15.394451724085188,785.7137758561793
554.2779644424957,-27.009529248010285,777.7834428678499
565.9200644460648,-34.801996604345014,781.9081949493458
565.1562970025443,-27.26976082556225,758.3231786593792
553.3775550264362,-19.51145396236228,750.2714994417054
549.0060316213999,-15.749822824307998,734.495469910724
550.1246603070366,-11.607531623949056,765.8945715407403
556.7956437723383,-23.512616438845072,738.5631178842929
558.9492844141477,-26.83403608775678,801.4000703604188
558.6770201852825,-7.593051653724769,789.5570862628931
536.8377580519342,-18.678651731223205,828.513304747289
545.6623821590451,-14.595809986080877,860.0286540255847
541.9455165627406,4.777574401044189,859.9083275124533
527.4573886087502,39.88609769901037,879.1952399647179
520.3774989420444,51.688599062880805,894.7479516450574
505.39990720582466,75.08843488857052,902.293851621094
490.23060882156506,90.71650359704896,905.93933708249
478.39782188616914,90.737407779415,897.9121310539277
470.50011981665506,83.02529406066293,893.8954688910078
443.4174769161743,67.75861277806388,893.5416273651044
451.12449205386145,67.69916332284726,893.656855297171
446.0717982185558,32.67099366246374,866.2275088842777
435.1384009830065,25.193822559181783,885.7112265656468
442.49157459479034,-5.849704027369184,882.0014989828333
453.9429876665325,-2.104459728857459,878.2356870083057
453.42497183033964,-17.681981104658576,866.5069111266334
472.88319660638456,-10.059092554542072,870.6979447619728
491.41449934483245,-18.116380211387174,851.379421107106
494.9406780093101,-25.95198156353087,843.6091835642143
501.2568002324954,-10.912798968047195,800.4823257687387
502.1837222700923,-14.54207094165694,827.9810128841144
506.5287330535912,-22.17250539174948,843.7702987258646
513.7717773143735,-10.762696741496843,828.141108329552
506.44613604034004,-14.469263204050314,839.8178786843622
521.2870858040208,0.7155929904707521,820.3657722055952
506.7184002692052,4.908567145763334,843.6815834153356
525.9584057756726,20.200476207471464,839.9932698729945
517.4335782351773,20.05475876063692,816.3185185562859
522.3771624356942,20.298674878781238,847.7890003212107
524.7857321307481,27.63012853522865,804.6295116069199
506.52669362116524,35.755737178343274,831.8008698179298
514.6426149602567,35.79887117415224,843.6958594423173
518.1963259624847,31.831971162425504,835.9133853048697
502.9189376596493,31.98513253761478,839.6088368607018
514.4794603661802,31.89590736897922,839.782188616908
514.0154894892752,43.365267446069765,824.0377702885287
510.0804046233934,31.788837166616535,824.0183956804822
507.07224179510854,35.89258309412491,847.5065389302158
510.5984204595861,28.056981741981208,839.737321103537
506.0637424604733,8.606272274426027,824.0357308561029
499.22960440109523,16.608423875635413,847.4545334033538
522.3506498141568,16.429871566742975,847.8012369157665
495.34958421071417,-6.539929537609685,851.3987957151526
510.27211127143323,0.9416783509149405,835.899109277888
505.8190105693586,-6.90282614348427,820.1597895305738
502.7017381062851,1.035399448333529,839.7097887657866
502.15618993234193,20.208022107447498,820.0139701121178
495.26698719746304,20.47274043633657,843.4572458484805
499.12049476630665,1.1335573309947844,847.5044994977899
499.50288834617334,-2.6325503612344687,859.2975175008797
491.76834087073576,-6.441761457786298,859.1945261633688
491.4685443041202,-10.37887555893195,851.3539282017815
496.2489739105607,5.27146375163792,874.9205895999145
495.78500303365576,16.74078304007995,859.1761712715352
502.97400233515015,20.41318900949866,843.5724737805469
506.96313216031984,39.72712394140711,843.5673751994821
495.5667837640785,24.40986473464435,851.2978438100678
495.7574706959054,12.872081699662987,859.188407866091
491.49505692565765,12.799273962056361,847.3515420658432
505.9281202041472,8.572060795480619,820.1098234361377
506.6092906344165,8.743087598721276,839.7424196846019
498.8482305374415,1.0651547674282247,839.6516649416469
525.6861415468076,0.8226529956713048,836.1305848582341
498.4668566737877,-14.478134735103222,831.8498161961527
499.3662463736342,16.64268634039147,851.3814605395319
514.2347284750654,16.38683954255531,835.9062472913789
510.2170465959324,12.513651450801245,831.9344526418299
514.6426149602567,35.79887117415224,843.6958594423173
503.1922216047275,32.053555495505606,847.4616714168449
490.70477686059974,16.462706428800868,823.7797820866454
506.58175829666607,24.183793650227145,835.7655264539878
514.6426149602567,35.79887117415224,843.6958594423173
506.8815548632816,28.120917948534927,843.6051046993623
507.37305807793695,20.52025921186134,859.3372864331858
498.7391209026528,4.899675220386167,835.712501210913
498.9573401722301,-2.7693656855297175,843.5908286723806
498.3577470389991,-10.643593887821021,827.910652465419
495.9767096816957,5.203061188071361,867.0677550437715
494.83156837452145,-2.8080231271637106,835.6798702920979
507.18237114611014,12.748594066271357,855.4358522023323
514.861853946047,8.820392284827134,855.5643364451673
494.9131456715597,8.798152274222085,835.6421407922177
495.92164500619486,-2.5343924785732135,867.0922282328829
502.6191410930339,8.738641636032694,835.7583884404971
499.1755594418074,8.871010997639358,847.4800263086785
495.5392514263281,20.54116339422739,851.3100804046235
488.29620716554587,28.440700952924804,862.9491212595536
503.3278438610535,32.08781796026167,851.3885985530229
503.6551727654194,39.89364359898641,859.2159402038415
507.7268996038403,32.194888162624345,867.1523914894485
499.5294009677108,20.545548173943192,855.2951313649412
491.5776539389089,5.096001182870808,851.3029423911327
491.63271861440967,-6.475962739569578,855.2675990271907
506.172852095262,4.771751821468086,827.9748945868365
494.9947229685979,1.0949100865229207,839.593541117507
514.7527443112582,12.654882146298688,851.6251727144337
497.94782112138205,8.56316887010345,812.1407412317153
506.445116324127,24.149531185471087,831.83859931781
491.08615072425346,12.696588539409484,835.5717803735222
510.49033054101045,12.582074408692062,839.7872871979729
506.2279167707628,12.509164699464142,827.9504213977251
503.0015346729006,4.97252374664131,847.5503867273737
506.9641518765328,1.108247974588672,851.5476742822474
517.4335782351773,0.745349329281661,820.3086680976685
503.1381766454396,5.00673522558672,851.4762941473389
498.92980783447973,12.67129957732763,839.6139354417667
487.7516787078157,8.994478236706726,851.2325819724372
503.4379732120551,8.943859523894501,859.3168921089263
506.7184002692052,4.908567145763334,843.6815834153356
503.16468926697706,8.875456960327941,851.4640575527831
487.4508624249872,5.057343741236814,843.3919840108498
511.1990333090302,16.621782158025425,859.4076468518813
487.88730096414173,28.338117501899223,851.1693595672326
514.3703507313915,16.42100003569007,839.8321547113438
507.1273064706093,24.320639566008783,851.471195566274
507.04572917357103,32.02388175370795,847.5197952409845
499.25713673884565,20.477227187673673,847.4412770925853
510.62595279733654,31.92568308239817,839.7240647927683
495.6218484395793,12.837921206528225,855.2625004461258
510.8717044046643,8.81593612497642,851.5792854848496
499.284669076596,5.036490544681416,851.4191900394121
487.6966140323149,1.2570347672242816,851.2580748777616
514.1256188402768,20.22138038983751,831.9670835606453
495.7860227498688,-2.5685937603564932,863.1663208129179
495.0763002656361,-6.608332101176244,843.5459611590096
503.2472862802283,-18.13718242213192,859.4056074194552
487.34277250641156,-10.417522803403815,843.4429698214988
498.8747431589789,24.24324310544376,835.6492788057085
499.25713673884565,20.477227187673673,847.4412770925853
502.97400233515015,20.41318900949866,843.5724737805469
491.5766342226959,24.405377983307247,847.313812565963
495.3760968322517,16.63819958905437,847.3964095792142
491.95902780256256,20.639260093915865,859.1058108528398
503.3829085365543,20.515874432145537,855.352235472868
491.71327619523487,5.130202464654087,855.2298695273106
506.52771333737826,16.446288997771923,835.7899996430995
498.8482305374415,1.0651547674282247,839.6516649416469
490.81388649538843,-6.681190824593516,831.7080756425487
487.15208557458465,-18.189187948993798,839.5415355906453
507.5372323882264,-14.195673344108336,871.2302366251474
527.7857372293291,-10.236217260736339,898.9930302396845
532.1032156750776,-2.4259558564851402,910.8054228508208
558.0396975521713,43.448374317427465,871.7921002584982
571.5978443199258,108.51615995268517,805.0577924163706
515.9040039157103,131.6667771359231,749.2007974180787
480.3230460962714,120.12256988879996,725.158948264698
457.611926600827,81.78501323081787,744.5712858111589
447.3342068902225,31.99135280651395,791.6801354183132
437.3287514084831,20.884909729622247,838.6635599312712
441.3464332876161,-13.860798539766384,850.6146339473726
458.1513564774924,-29.078431472521203,894.0881952552606
484.03583282772405,-68.17924571591728,871.060963733793
504.3394023443276,-75.7918351322827,902.7873942681753
542.1922878862813,-56.95094655157471,879.7428275710871
538.3928252767255,-29.87431997675047,875.6700810164532
514.5895897171818,-10.557427867824385,851.7006317141941
510.49033054101045,-6.727363574717157,843.7774367393556
490.75984153610057,-33.72803148883666,835.723718089256
485.6806350792575,-72.62490248963715,808.3066082709183
505.5202337189561,-88.07758000948337,828.278770018304
490.6252389959875,-91.69053652368547,843.7662198610128
502.21227432405567,-68.60161217133273,839.9371854812806
483.1078910739142,-45.24052556173618,839.5721270770346
495.2404745759256,-22.014857265223092,851.4497815258014
495.92164500619486,-2.5343924785732135,867.0922282328829
480.2078181642049,-6.3524955005022115,859.0211744071626
484.3060576241632,28.436214201587703,858.9650900154488
480.69830166264734,43.97515971305186,862.7829075168381
465.5565356161381,63.47192976194725,866.4151366674655
465.1211167931965,40.19119678993337,858.6377611110829
450.06194775993845,32.67537844217954,870.2115401283825
477.28123263295834,28.666772037342014,878.4814386156334
488.0239429366807,28.372277995033986,855.0962867034107
488.0239429366807,-10.246516394487415,863.0755660699627
487.969897977393,-17.984021046942637,863.1010589752874
491.4420316825828,-33.55702507992026,855.3563143377199
495.15889727888737,-52.93040946704533,855.4776605670643
509.9733344210307,-60.92365894571542,840.0279402242356
501.7483034471507,-57.132252094242176,824.1927671529015
498.0039055130958,-80.24646540867677,832.0639566008781
512.9539649115652,-68.89610621364075,816.5520335690578
509.18203463975976,-57.26022647897091,816.4561802450379
505.7374332723204,-37.818419133955025,824.1876685718366
498.6585633218276,-45.325365950655936,843.7305297935585
490.6507319013119,-29.893490641554457,831.7845543585221
487.506946816701,-25.82400717880214,851.3467901882907
491.93251518102517,-2.538838441261797,863.1081969887781
480.37199247449445,-2.4495622868155795,862.9348452325719
469.24790830711817,1.6110394477216994,874.527998857918
461.1584995895643,5.4366577781403445,862.6207726389747
477.25370029520786,24.79807069692505,878.4946949264021
464.9294101451567,32.41953164434339,854.7363268802293
453.36990715483887,13.1994106040289,858.5531246654057
461.40425119689195,-17.673109573605668,874.4759933310561
468.7574248086758,-29.40718797958528,866.7761162068598
495.89513238465736,-25.712552196723653,871.0946143688212
496.44068055860066,-44.885154461513366,890.79043302249
488.05249499064416,-44.99660944359185,871.0426088419593
487.9433853558555,-41.16206859630965,867.1034451112256
476.7377238914411,-48.70766265748243,878.7343282364519
468.4300959043099,-37.21301361831003,858.9487745560413
483.59837457235653,-33.53173611783841,851.3141592694753
475.7557371783433,-33.506447155756554,847.2720042012309
488.2156495847206,-41.09374761004013,874.9562796673687
488.3522915572597,-41.05948514528407,878.8832068035467
491.4960766418707,-25.819622399086334,855.3308214323955
514.9444509592981,-18.19224709763273,863.5058863118395
502.7292704440355,-14.4053269974966,843.6866819964005
517.8975491120822,-10.724049497024978,836.0520667098347
513.8798672329491,4.712241183278694,828.091142235116
528.8839715907064,23.79997246766225,812.5527065817583
528.857458969169,19.93127112724529,812.5649431763142
513.7432252604101,23.987396307607597,820.1750852737684
513.5790509501206,39.39398265462722,812.2712649069765
514.1796637995647,47.26823125124278,827.951441113938
507.01717711960765,47.46452662224104,843.5418822941577
510.5443755002983,39.628925270097334,835.7726644674788
506.41758398637666,58.899726206196824,823.8715565458135
506.6908679314547,39.65870098351629,835.7145406433391
522.104898206829,39.53959812984047,835.946016223685
498.8747431589789,24.24324310544376,835.6492788057085
497.9753534591324,-6.877516787078157,816.1176344623292
494.55828442944335,-2.87642569073027,827.8270357359547
505.27346239541544,-7.039641467779517,804.4541204182877
497.75815390576804,-18.517842484436585,812.2294565422444
504.183385763742,-26.622648916806458,777.0308923026723
516.5066561975802,-34.24421183584609,800.789260348845
497.1585607725371,-45.701539261623495,800.5384101604525
498.0039055130958,-60.937017228105425,828.0748267757084
509.5644282196265,-61.02634436836229,828.2481785319146
509.9733344210307,-60.92365894571542,840.0279402242356
499.2041114957708,-64.49796821544565,863.4263484472274
500.7581590043491,-37.07484207145152,902.6028256336263
484.9352225275706,-37.05842464042257,890.5926080771721
500.4838553430581,1.4756007403139708,886.7707117109309
497.52973747406105,32.62612614909271,906.2442322301704
493.3223883793141,40.29072109232001,894.3818735245982
496.5752830987137,71.0055931434282,870.7785023427981
477.08952598491845,78.82334946184478,862.6115951930578
