acc_x[mg],acc_y[mg],acc_z[mg]
-860.3335491732652,374.7375505396849,331.3792171638633
-848.9096684392736,355.30481866896446,331.61579132527424
-837.2675684357043,366.8214935783372,331.7514135816003
-833.7138574334764,362.8547975098531,323.96893944415274
-849.2094650058889,351.3676943706567,323.7751933636869
-841.5299822059521,366.7490937272157,319.91352806513953
-848.9912457363117,363.00775494179976,327.6643909999848
-863.8321954999924,367.1325070232955,343.1263479373691
-856.3709319696329,370.8738458087115,335.37650471873684
-863.9147925132437,374.83544329613073,339.1739278958666
-864.5419179842252,382.401737596427,319.5158387420781
-868.0946092702402,367.060107172174,331.2884624209083
-871.9481168390838,367.08967894235036,331.23135831298157
-855.9895581059792,367.107014117971,347.16850300561356
-864.405276011686,382.4364079476682,323.4427658782561
-872.0572264738723,351.61446569419735,331.28132440741746
-852.5449567385397,366.9744510102839,335.4468651374323
-845.0836932081803,370.7157897956999,327.69600220258707
-844.5381450342371,370.85243176823894,343.4026910310861
-852.9263306021935,351.43193649207427,327.64399667572513
-844.6737672905631,351.50841520804767,343.46591343629075
-845.0561608704298,355.2752468987881,331.6739151494139
-855.9344934304785,355.5352745330975,351.13315964167174
-852.7081113326161,363.07199706321734,331.53217459581003
-856.3974445911703,347.6956962877232,339.3788908546752
-856.6156638607476,355.36396220931715,331.50056339320776
-853.0354402369821,335.95672324392126,327.6949824863741
-844.1017064950826,374.824226417788,355.16919641263837
-860.4691714295911,355.39353397949355,331.442439569068
-883.4811072078642,351.7378513559677,335.0348997873892
-867.9039223384133,355.52201822232877,339.1800461931445
-872.5752423100653,355.34662703369656,315.5623989843627
-864.6775402405511,363.0587407524486,319.57906114728274
-845.0836932081803,370.7157897956999,327.69600220258707
-856.779838171037,351.4615082622507,327.58587285158546
-864.2145890798591,370.89831899782297,331.3343496504923
-856.9164801435761,370.73618411995943,319.66981589023777
-864.2421214176096,386.33886189473475,327.3564367036654
-871.9481168390838,367.08967894235036,331.23135831298157
-860.1969072007262,374.7722208909261,335.30512458382833
-872.4120877159888,359.2490809807631,319.47606980977196
-875.8566890834281,359.38164408845023,331.1987273941662
-882.9906237094217,363.4472526295932,346.7759122636171
-883.2088429789991,351.8061723422372,342.8877343435322
-879.5460223419824,363.3146895219061,335.05427439543575
-864.2686340391471,363.16071237374643,331.35882283960376
-844.9470512356412,370.7494404307282,331.62292933876506
-841.3382755579123,355.2110047773705,327.8051118373757
-853.3352368035976,351.32894515456354,315.8642349834042
-848.1183686580025,332.3316321067847,359.17770084585464
-837.8936741904729,316.45974925178325,324.0627533357467
-833.5221507854366,332.00736235105774,335.84965304155855
-833.4681058261486,339.74496897513427,335.8241601362341
-829.5595335818042,328.14365762008435,339.84694059643203
-829.34233402844,359.09306440017747,339.74496897513427
-837.4572356513183,339.74089011028235,331.8401288921293
-836.9942844906263,347.58046835565665,343.59439767912596
-844.5646576557745,347.67428224725063,347.40507716702444
-856.2618223348443,367.03869313170145,339.31566844947054
-878.7557422769244,359.6508491686764,358.62603437463355
-870.6663335593706,355.8248739375832,370.53428030978984
-868.2312512427793,347.71609061198274,331.35168482611294
-882.9630913716715,348.00569001646846,350.75382521044395
-876.1829982715811,332.26637026915415,327.36051556851737
-875.2285438962338,351.81534978815404,350.85681654795474
-875.6649824353883,347.843555138605,339.0892914501895
-875.9372466642534,328.46588794338544,335.2255867192161
-884.135765016596,336.12599613527556,319.3791967695391
-860.2234198222635,332.2847251609877,343.29766026114936
-864.131992066608,343.8860365160376,339.2758995171644
-852.7356436703666,339.893847542229,335.53558044796137
-860.7699877124197,351.4564096811858,323.60184160748065
-864.8957595101285,370.72802639025565,311.7007336858153
-856.3158672941321,359.301086507625,339.340141638582
-825.7335583507112,343.5546287468198,335.9271514737449
-861.3685611294377,304.9634686666701,315.90094476707134
-850.7349604605039,289.1945771491794,292.56575894928443
-862.5412347743625,293.0837747854772,284.52631632616647
-877.0558753498902,343.63314689521906,299.83633554781704
-899.8771241963364,367.0580677397481,303.3400804556092
-902.9668643216593,359.55601556086947,326.866972921436
-894.9325202796063,328.6830874967497,342.78984158708636
-894.4685494027012,336.523685458337,354.54411037408295
-882.6357624673054,355.8116176268145,358.58116686126255
-886.4076927391109,367.44759933310564,358.48531353724263
-874.6564831007532,355.8207950727313,366.5502490656851
-868.1221416079906,343.8819576511857,335.29084855684664
-860.0327328904366,340.05598242009256,347.1990944920029
-856.5340865637094,347.6610259364819,335.4519637184972
-841.1475886260854,343.67291582752523,335.6956758933989
-844.5371253180241,332.23373935033885,351.3819703976384
-856.5881315229972,320.6140731034553,339.4665864489913
-859.8145136208594,332.3866967822855,355.0774219534704
-864.0504147695698,336.1831002432024,343.2272998424539
-871.6483202724683,332.40811082275803,347.05123564112114
-879.4093803694433,344.03899394798435,342.97033135678345
-875.6914950569258,324.6654056176166,343.09167758612784
-879.4634253287311,336.3013873239078,342.99582426210793
-867.8488576629126,343.95027863745526,343.1447028292027
-875.9372466642534,328.46588794338544,335.2255867192161
-871.5657232592172,344.01350104265987,347.012486425028
-872.6568196071036,343.74021709758176,315.6001284842429
-867.9854996354514,343.915608286214,339.2177756930247
-864.4593209709739,336.0801089056916,331.44753815013286
-852.5714693600772,343.79630148929556,339.4492512733707
-860.4141067540904,324.51244818567,339.3962260302958
-876.645949432273,324.4267920237798,315.6062467815207
-856.9980574406144,339.82042797489464,323.69769493150056
-872.5752423100653,336.0372808247465,319.5525485257453
-855.8529161334402,347.8323382602622,355.08455996696125
-872.0296941361221,336.1739227972855,335.2582176380314
-872.1112714331604,343.8768590701208,331.30681731274194
-868.5575604309322,339.9101630016367,323.52434317529435
-860.2234198222635,332.2847251609877,343.29766026114936
-875.6639627191753,309.22486272070483,347.0685708167417
-868.012012256989,320.7374587652257,343.22016182896306
-880.4454120418288,332.1939704180327,315.52263005205657
-871.9205845013335,332.33978983648854,339.1973813687651
-859.8420459586098,347.82723967919736,351.10052872285644
-883.0446686687096,336.4002997965667,350.7915547103242
-887.9617402476891,340.02437121749017,319.3088363508436
-879.2462257753668,347.94246761126385,346.88502189840574
-866.9219356253155,340.3211086354668,370.6423702283655
-864.1044597288575,328.44549361912584,343.2527927477783
-855.9610060520158,332.3571250121092,355.1355457776101
-859.923623255648,336.2218494592955,351.1382582227367
-852.0809858616348,336.19635655397104,355.18041329098116
-851.8352342543071,332.39587422820233,363.0465041578929
-856.8063507925746,328.28335874126236,331.58825898752383
-863.9678177563186,309.16979804520406,351.168849709126
-856.3433996318826,336.12293698663666,343.34252777452036
-856.6156638607476,336.05461600036716,335.48969321837734
-856.6697088200355,309.0076631673406,339.5053356650845
-856.9970377244015,320.51108176594454,327.6878444728832
-864.3502113361853,332.2459759448946,335.38670188086655
-867.7937929874116,332.3775193363687,347.1083397490479
-867.6306383933352,336.2809929996482,351.02303029067014
-867.4399514615083,344.052250258753,354.92344480531074
-871.6207879347179,336.27691413479636,347.0379793303524
-864.540898268012,324.4736989695768,331.48526765001304
-867.7122156903735,324.6745830635335,351.0607597905503
-875.9923113397543,320.72828131930885,335.2510796245405
-872.3019583649872,336.105601811016,327.4053830818884
-856.6431961984981,351.49515889727894,331.51279998776346
-875.58340513835,340.14061886576974,343.0417114916919
-880.5820540143679,332.15930006679145,311.59672263209154
-864.6765205243382,324.4400483345485,327.559360230048
-857.7332728301715,312.60318253430074,308.07972141353065
-864.9498044694162,324.371727348279,319.705505957692
-861.6143127367654,328.07329720138887,304.044704358777
-857.7342925463845,331.9125287432508,304.090591588361
-865.2496010360319,320.4346030499712,311.86592771231767
-865.5493976026472,316.49747875166344,304.0253297507304
-865.194536360531,308.8618437488847,315.82956463216294
-880.1721280967507,312.9529451953522,327.3656141495822
-872.3845553782384,343.8085380838513,323.4539827565989
-875.2010115584833,336.3748068912422,354.8337097785687
-859.6788913645333,351.73071334247686,355.01419954826576
-859.7604686615715,359.4336496153121,351.0627992229763
-846.9181626753275,348.08012930001587,390.53907297599085
-869.8209888188119,340.59031371569296,398.0706969250458
-865.7767943181414,348.3319992046214,402.0302549800391
-854.4069585434373,359.7803531277246,394.31202296400915
-862.6860344766053,336.52470517455,382.492492339382
-863.4498019201257,324.74800263086786,362.8976255907981
-851.5354376876916,336.3329985265101,370.88710211948023
-848.4997425216563,336.09744408131223,347.3846828427649
-837.566345286107,324.2656768621293,331.89009498656526
-856.0701156868045,336.19125797290616,351.1963820468764
-829.5054886225164,335.8802445279479,339.8214476911076
-841.0935436667976,351.41052245160176,335.67018298807443
-864.1595244043584,340.01723320399935,339.2881361117202
-867.6857030688361,367.16207879347184,343.06822411322935
-860.0877975659375,351.6277220049661,343.23443785594475
-878.7282099391741,363.5196524807146,358.61379778007785
-868.0130319732019,359.3561511831258,335.24088246241075
-879.6816445983084,343.9706729617148,335.1174968006404
-879.3818480316928,347.90779726002256,342.9580947622277
-887.6078987217858,351.69910213987447,327.12394140710643
-864.6234952812633,351.4870011675751,323.5437177833409
-868.4494705123565,355.3853762497897,323.47335736464544
-864.9773368071667,339.8122702451908,315.7286127270781
-864.8957595101285,351.4186801813056,315.6908832271979
-860.9606746442465,343.685152422081,319.70040737662714
-852.898798264443,355.30073980411254,327.63176008116943
-867.9039223384133,355.52201822232877,339.1800461931445
-871.6483202724683,351.71745703170814,343.0610860997385
-875.9923113397543,359.34799345342196,327.2718002579882
-871.6758526102187,347.84865371966987,343.0733226942942
-879.7091769360588,340.10186964967653,335.1307531114091
-872.0847588116228,347.7456623821591,331.2945807181861
-856.6431961984981,351.49515889727894,331.51279998776346
-875.9382663804665,347.77523415233543,331.23645689404646
-856.833883130325,343.72390163817414,327.6113657569099
-864.6234952812633,351.4870011675751,323.5437177833409
-856.5340865637094,347.6610259364819,335.4519637184972
-872.2214007841619,347.7120117471308,327.36765358200813
-865.0048691449169,335.94346693315254,315.7418690378468
-868.5850927686827,355.3507058985485,319.54744994468047
-857.3253863449802,351.3248662897116,311.8802037392994
-868.9950186862997,355.24873427725066,307.7676882523594
-856.2342899970938,351.59815023478967,343.2925616800845
-864.6775402405511,343.7493945434986,323.5692106886654
-861.3971131834011,359.023723697695,303.9437524536922
-879.6551319767709,347.83947627375306,335.10526020608467
-876.510327175947,343.76978886775817,315.5430243763161
-868.4219381746062,359.254179561828,323.46112077008974
-864.868227172378,355.2864637771309,315.67864663264214
-868.8859090515111,351.4135816002407,311.70685198309315
-876.4838145544097,347.63859217979643,315.5297680655474
-868.3944058368558,363.12298287386625,323.447864459321
-852.7896886296544,351.46558712710254,331.5709238119032
-864.3502113361853,351.5553221538446,331.3975720556969
-864.6234952812633,351.4870011675751,323.5437177833409
-872.1388037709106,359.3174019670326,327.329924082128
-853.5809884109253,355.12942748033225,307.9991638327054
-857.5160732768071,343.55258931439386,307.9787695084458
-845.6557540036608,347.4009983021725,315.9927192262394
-864.2961663768973,359.29292877792113,331.3720791503725
-856.779838171037,370.77085447120066,323.59674302641577
-860.8240326717076,363.02916898227227,319.6371849714225
-860.4151264703033,363.1311406035701,331.41694666374354
-864.3502113361853,351.5553221538446,331.3975720556969
-878.8373195739626,367.35378544151166,354.6746340493441
-867.5225484747597,371.06555245675133,346.9818949386386
-856.6707285362486,366.9357017941907,327.5359067571495
-872.4661326752766,351.5114743566866,319.5015627150964
-857.243809047942,362.93025650961346,311.8424742394192
-852.953862939944,347.56313318003606,327.65623327028095
-864.2135693636462,351.58897278887287,335.323479475662
-868.3128285398175,355.419026884818,327.4002845008235
-852.7896886296544,351.46558712710254,331.5709238119032
-872.4396200537391,355.38027766872483,319.4893261205407
-856.2893546725948,363.16988981966324,339.3279050440263
-868.149673945741,359.32250054809754,331.31395532623276
-863.941305134781,370.96663998409247,339.1871842066354
-856.2077773755565,374.77629975577804,339.2901755441461
-856.8614154680753,359.164444535086,323.634472526296
-845.3284250992949,355.2069259125186,323.820060877058
-879.8182865708474,343.93702232668653,331.1915893806754
-860.3335491732652,355.4282043307348,335.36936670524597
-864.3226789984349,355.4241254658829,331.3843157449282
-863.8872601754933,378.704246608169,339.1616913013109
-863.9137727970307,355.5260970871807,343.16407743724926
-871.8940718797959,374.82728556642695,331.2058654076571
-863.7506182029541,378.73891695941023,343.0886184374889
-875.774092070177,351.6787078156149,335.1501277194557
-852.4358471037513,363.14031804948684,339.386028868166
-875.6925147731387,343.9747518265667,339.1025477609582
-864.2951466606844,339.9835825689711,335.3612089755421
-876.4012175411583,339.93565590696113,319.4821881070498
-860.0062202688994,363.2341319410809,343.19670835606456
-853.0354402369821,355.2660694528713,323.70483294499144
-848.6914491696962,366.9448792401075,335.50396924535903
-860.2795042139774,382.47515716376137,331.3537242585389
-867.7948127036248,351.68788526153173,343.11920992387826
-883.7809037744797,347.80072705765986,327.1943018258019
-879.79177394931,347.80480592251183,331.17833306990667
-891.5970285469555,332.38567706607256,327.1290399881713
-876.1564856500437,355.44451979014246,323.35812943257895
-868.1221416079906,363.19130386013575,331.301718731677
-869.4855021847421,362.8486792125752,292.03550651853595
-864.7050725783016,339.8805912314603,323.5824669994341
-860.9056099687458,351.42275904615747,319.67491447130266
-872.2754457434497,359.28375133200433,323.40299694594995
-868.1761865672784,355.4536972360592,331.3261919207885
-880.3363024070403,328.35881774102273,319.46179378279027
-856.7523058332868,355.3303115742889,327.5736362570297
-856.834902846538,363.0332478471242,323.62223593174025
-860.9331423064962,347.55395573411926,319.6881707820714
-860.3060168355147,339.987661433823,339.3462599358599
-856.1527127000556,343.8952139619544,347.24396200537393
-840.383821182565,355.4506380874203,355.29054264198277
-851.8902989298078,363.27696002202595,355.09169798045207
-860.0337526066496,359.36532862904255,343.2089449506203
-860.714923036919,359.19401630526227,323.5763487021562
-876.645949432273,324.4267920237798,315.6062467815207
-853.4443464383862,335.8537319064105,315.915220794053
-872.030713852335,374.79261521518566,327.2789382714791
-856.4800416044217,374.7079787695085,331.4373409880031
-861.0147196035343,355.2568920069545,315.7357507405689
-853.0619528585195,332.087919931883,327.7072190809298
-856.9980574406144,339.82042797489464,323.69769493150056
-868.8033120382598,324.40129911845537,319.64840184976526
-873.2839450780849,351.306511397878,295.9430590466674
-865.1680237389936,351.3493394788231,307.8380486710549
-868.7767994167225,347.5794486394437,315.6460157138269
-868.9939989700867,335.9393880683006,311.7568180775291
-856.7523058332868,336.0209653653389,331.5637857984123
-872.493665013027,347.6426710446483,319.51481902586517
-873.0116808492198,351.3748323841475,303.7958936028104
-860.8790973472084,355.2915623581958,319.66267787674695
-856.9164801435761,351.4268379110094,323.65996543162044
-868.5585801471451,359.21950921058675,319.53419363391174
-857.1612120346908,355.22732023677816,315.7938745647087
-860.5242361050921,366.9662932805801,327.4777829330098
-852.9813952776944,363.00367607694784,323.679340039667
-868.2852962020671,339.9784839879062,331.37717773143737
-871.7849622450073,351.68278668046685,339.1341589635605
-856.4249769289207,363.136239184635,335.40097790784824
-868.2037189050288,351.584893924021,331.3394482315572
-872.2214007841619,347.7120117471308,327.36765358200813
-876.4562822166592,351.50739549183464,315.5175314709917
-868.340360877568,370.8595697817298,323.42339127020955
-880.4188994202915,355.372119939021,311.5202439161182
-868.2577638643166,343.84728729994447,331.3649411368816
-869.0215313078371,332.07058475626235,311.77007438829776
-864.5133659302618,328.34250228161505,331.47303105545734
-860.714923036919,359.19401630526227,323.5763487021562
-856.3709319696329,370.8738458087115,335.37650471873684
-860.6058134021303,355.3598833444653,327.51551243289
-860.4416390918409,339.9529910825818,335.4193327996819
-861.177874197611,332.0450918509379,315.8122294565423
-868.4494705123565,355.3853762497897,323.47335736464544
-868.0680966487029,370.9289104842123,331.2762258263526
-863.8056828784551,390.3106565442838,339.1239618014307
-849.2645296813898,382.24878016448025,315.8214069024591
-846.2278147991415,304.77584088348215,308.27856607506135
-864.7030331458756,262.6432063956601,339.5410257325387
-891.6235411684929,289.8981813361342,335.12157566549234
-883.3719975730755,367.2130646041207,334.9839139767403
-871.7584496234699,394.1702824104052,331.1426430024524
-890.970922792187,402.0567676015765,330.82755069264226
-856.3168870103452,378.610432716575,335.3510118134124
-879.6010870174831,374.88642910677964,331.08961775937763
-861.587800115228,351.2514467223772,300.0423182228386
-884.3539842861732,343.7952817730826,311.50086930807163
-864.0504147695698,355.4924464521524,339.2371503010712
-844.8379416008527,347.60596126098113,339.5522426108814
-848.9086487230604,335.9954724600144,335.60594086665685
-856.4790218882086,336.0892863516084,339.41662035455533
-863.9953500940688,343.9196871510659,343.20180693712945
-852.5174244007894,351.5339081133721,339.4237583680462
-860.0877975659375,351.6277220049661,343.23443785594475
-871.757429907257,355.5515899925051,339.1219223690047
-870.8845528289478,363.4941595753902,362.65595284832233
-867.7683000820873,374.86603478252005,339.1168237879399
-883.5361718833649,363.3095909408412,331.07024315133106
-879.4369127071938,359.47953684489613,338.99343812616956
-872.030713852335,374.79261521518566,327.2789382714791
-863.532398933377,371.06963132160325,350.96694589895634
-855.8529161334402,347.8323382602622,355.08455996696125
-860.2244395384765,351.5940713699378,339.3085304359797
-871.6207879347179,355.58626034374635,343.0488495051828
-836.8311298965499,370.7932882278862,343.51791896315257
-864.4593209709739,355.38945511464163,327.45840832496316
-860.1693748629758,359.3306582778013,339.2830375306553
-856.9705251028639,362.99857749588296,319.6953087955622
-853.08948519627,347.5284628287948,323.7303258503159
-856.3974445911703,347.6956962877232,339.3788908546752
-856.7523058332868,355.3303115742889,327.5736362570297
-860.250952160014,347.7252680578995,339.3207670305354
-863.5599312711273,367.200828009565,350.9791824935121
-864.4868533087242,370.8299980115534,323.4804953781363
-857.0521023999022,351.3931872759811,319.73303829544244
-872.3845553782384,363.11788429280136,319.46383321521625
-860.4977234835545,370.8350965926183,327.46554633845403
-864.2961663768973,359.29292877792113,331.3720791503725
-868.2037189050288,370.89424013297105,327.3492986901746
-868.5035154716444,347.64776962571324,323.4988502699699
-860.9606746442465,362.99449863103104,315.7112775514575
-872.493665013027,366.95303696981136,315.5246694844825
-873.4205870506239,351.27286076284975,292.0161319104894
-864.5419179842252,363.0923913874769,323.50598828346074
-868.7767994167225,347.5794486394437,315.6460157138269
-861.2329388731117,343.6168314358115,311.8475728204841
-861.0147196035343,335.94754579800446,319.72590028195157
-842.4293719057987,354.9377208322924,296.39275389659065
-861.6693774122662,339.6450367862624,300.0800477227188
-850.2179643405242,343.3904544365303,296.3152554644043
-850.9541994462942,335.4825552048865,276.7071324050517
-861.9691739788818,335.7079124879547,292.2404694773445
-855.5174294993705,350.78135754819436,253.03951910183397
-845.6292413821235,370.57914782316084,311.990333090301
-845.3824700585827,347.469319288442,323.8455537823824
-875.4202505442736,363.3534387379992,342.96523277571856
-867.5765934340474,363.3279458326748,347.00738784396304
-863.9688374725315,367.0978366720542,339.1994208011911
-867.3043292051823,363.3962668189443,354.86022240010607
-836.3681787358579,378.63286647326055,355.2721877501492
-840.8753243972203,363.0505830227448,339.5593806243723
-843.9110195632556,363.2861374679427,363.0607801848746
-841.0119663697594,363.0169323877165,335.6324534881943
-832.5687161263021,390.1750342879577,351.36565493823076
-833.2774188943217,366.8255724431891,335.73544482570503
-864.1044597288575,347.7548398280759,339.2626432063957
-840.9569016942585,370.7545390117931,335.6069605828699
-844.9745835733916,366.8806371186899,331.63516593332076
-849.0452906955995,355.2701483177232,327.6888641890962
-848.609871872658,378.5512891762223,335.4662397454789
-841.6390918407408,370.5832266880128,315.9743643344058
-856.834902846538,363.0332478471242,323.62223593174025
-856.3433996318826,374.74162940453675,335.3632484079681
-859.8705980125732,382.57814850127215,343.13348595085995
-838.4667547021664,331.76365017615603,304.37917127663377
-854.7251100018866,308.4998444932776,284.59157816379707
-866.6680262882841,350.97306419623425,264.64592903794875
-886.8737030484417,456.1547521324816,326.7823364757588
-905.1041895040611,468.149673945741,353.941458092213
-883.5912365588658,394.19169645087777,323.1154369738902
-906.7112622557144,375.0608005791989,326.7588830028604
-872.3305104189504,370.85549091687784,319.4383403098918
-864.869246888591,393.9061759112439,307.6983475498769
-868.4229578908191,378.563525770778,319.47097122870707
-875.9382663804665,386.3939265702355,323.25717752749415
-857.6251829115957,366.6970882003539,300.0494562363295
-864.8967792263414,390.0373725992057,307.7116038606456
-846.7468503515473,385.74640677499457,276.601081918902
-846.5021184604325,381.94592444922586,284.46615306960075
-834.0962510133431,385.92995569333056,308.1867916158933
-845.2743801400072,382.25387874554514,319.8054381465638
-861.452177858902,389.90480949151856,295.98996599246436
-864.9508241856292,362.9904197661791,311.7262265911397
-868.0405643109524,394.10604028898763,327.2738396904142
-879.6010870174831,374.88642910677964,331.08961775937763
-867.5225484747597,371.06555245675133,346.9818949386386
-853.0089276154447,378.4442189738596,319.7024468090531
-887.4447441277093,394.2212682210541,323.05833286596345
-864.7876695915528,386.2022199221957,311.65076759137935
-880.7737606624078,363.0067352255868,299.71600903468567
-869.7037214543193,351.2086186414321,288.14732859845105
-872.2479134056993,363.15255464404265,323.39076035139425
-848.6374042104084,393.9918320731341,331.48934651486496
-856.9715448190768,401.618289629996,311.71602942900995
-852.8182406836178,386.2154762329644,323.60388103990664
-848.8005588044848,370.7800319171175,331.56480551462533
-837.5133200430322,370.6219759041059,323.8853227146885
-852.4093344822137,386.31846757047515,335.38364273222766
-852.899817980656,374.6100860130626,323.6416105397868
-872.3029780812002,374.7242942289161,319.42610371533607
-871.9216042175464,370.9584822543886,331.2181020022128
-852.953862939944,366.87247938898605,323.66710344511125
-859.7064237022837,386.4806024483387,347.04715677626916
-872.030713852335,394.1019614241357,323.2898084463094
-855.9079808089409,398.02277026303585,343.14062396435077
-868.2047386212417,390.2035863419211,323.3601688650049
-845.3294448155079,393.8256183304187,315.8407815105057
-844.5656773719876,386.2929746651507,339.42579780047214
-829.3973987039407,389.974150194001,331.79118251390645
-829.2332243936513,393.8776238572806,335.7048533393157
-821.5547613099275,409.25902321383967,331.84318804076827
-844.9470512356412,390.0587866396782,327.6327797973824
-837.241055814167,389.9996430993255,327.7490274456619
-837.840648947398,382.1253945027099,312.0678315224873
-844.6197223312753,378.5553680410742,339.4512907057966
-852.8182406836178,386.2154762329644,323.60388103990664
-832.8960450306681,382.3691066776117,343.53831328741217
-864.3777436739356,366.99586505075644,327.41965910887006
-849.2094650058889,370.67704057960674,319.78504382230426
-848.6914491696962,366.9448792401075,335.50396924535903
-860.115329903688,386.3776111108279,335.2673950839482
-844.674787006776,390.1281273421607,335.48663406973844
-845.465067071834,374.4816017702274,315.9040039157103
-852.8182406836178,386.2154762329644,323.60388103990664
-848.9372007770238,390.05470777482634,323.64874855327764
-841.6390918407408,389.8925728969628,311.98523450923614
-853.1996145472716,389.98230792370487,311.81188275302986
-864.2686340391471,382.47107829890945,327.3696930144341
-861.4797101966524,386.0360061794803,296.00220258702007
-872.1938684464114,370.89016126811913,323.36526744606977
-837.8946939066858,374.3877878786334,312.09332442781175
-834.6683118088237,362.61516419980325,296.4824889233327
-846.992601958875,370.23652317560027,272.7251405933729
-853.1180372502333,401.58769814360664,311.7731335369367
-856.507573942172,390.14852166642027,327.4594280411762
-857.0806544538656,386.143076381843,311.7659955234459
-864.5419179842252,382.401737596427,319.5158387420781
-860.6333457398807,370.80042624137707,323.53861920227604
-868.5585801471451,359.21950921058675,319.53419363391174
-856.6982608739988,382.37726440731547,323.5590135265356
-856.7257932117493,397.8178073042273,319.58110057970873
-864.678559956764,401.6774331703487,311.5997817807305
-857.1887443724413,370.66786313368993,311.81698133409475
-857.3804510204811,382.2059520835352,303.9253975618586
-862.1884129646721,381.99589054366174,276.3818429331117
-861.915129019594,382.0642115299313,284.2356972054677
-862.1333482891712,370.42415095878823,280.34649956916996
-866.2326074653425,374.25420505473335,272.4233045943314
-870.4950212355902,374.1818052036119,260.58541907787065
-874.4576384392225,378.04550993458525,256.5881315229972
-889.0803689333259,374.500976378274,279.92943563806193
-888.479756083882,363.0658787659395,299.5997613864062
-869.5680991979933,370.55263520162345,288.0841061932465
-884.6548005690017,378.4768498926749,295.68099197993206
-872.9851682276823,374.5529819051358,299.79350746687203
-869.4314572254543,370.5862858366517,292.01103332942444
-861.2329388731117,362.9261776447615,307.85742327910145
-876.6204565269486,366.91428775371816,307.61371110419975
-853.9093370315042,385.94219228788637,292.1915230991215
-842.1571076769336,393.624734236462,296.26630908618137
-841.5575145437026,382.18963662412756,315.9366348345256
-856.9164801435761,370.73618411995943,319.66981589023777
-830.3793854170386,385.866733288126,304.3179883038551
-846.52863108197,378.07712113718753,284.4794093803695
-826.79814207706,405.0771670244171,292.5331280304692
-815.8106998822229,381.6736602203607,281.00217709411476
-827.0979386436755,381.8306965171593,288.68267961026453
-830.6251370243662,408.97554210663174,292.4627676117737
-837.7590716503598,432.3504968567248,304.0508226560549
-822.6458576578138,428.2940657614986,296.4417002748135
-837.9497585821867,405.26989338867,304.13953796658393
-811.7940377193029,404.85588860620095,280.9848419184941
-811.8205503408402,400.9870852941627,280.99707851304987
-815.3477487215308,428.13193088363516,284.77716651455904
-807.2032753284761,374.1155236497683,308.62934845232576
-794.7974078813867,378.100574610086,332.34896728240534
-787.8816925249704,362.3949054978,312.8825847766567
-744.8384514589591,358.3700856051761,333.1647402527877
-764.9798860976991,408.50443321623595,297.37168146104943
-783.7294081057242,443.53984286173164,304.8217281130662
-757.9020358634193,493.24896881197964,261.87026150622285
-778.4238246496001,527.8397821886169,218.2753539689905
-793.9204519382257,574.2807176762708,206.1131986968027
-810.0166723600823,593.538058358359,182.25897732661002
-851.0418950406103,632.8267043281855,212.9085875400876
-933.4176298736063,587.7409716875794,290.31932413209404
-968.2164653576912,596.6991786185905,395.7324876486874
-937.3588330367659,484.4732910830916,420.1210403144805
-904.6585735189898,390.0271754370759,271.79413969092406
-947.7171103281958,288.7795526504974,161.60156628410314
-954.499242860712,381.7572769498249,169.03529747671226
-972.4605242361052,528.9859432120041,176.1192660082699
-990.6104531108994,571.8956014541154,199.25050858346125
-995.7284087838357,630.5333625651982,261.769309601138
-999.5278713933914,638.300540959451,261.6867125878868
-946.7769319798301,544.8975949993118,247.0935538639597
-940.1039090821025,455.75502337699425,235.71963922440386
-936.4400687288728,351.40644358674984,251.82503709217727
-912.0372400360981,339.9642079609245,291.4756823176111
-876.9753177690649,393.85824924923395,291.8193266813846
-868.9695257809752,455.6642686340392,287.8057236671035
-857.846461329812,490.22245109186116,268.2332906752051
-878.039901495414,455.3818072430443,248.42530323810888
-879.1850428025881,428.0605507487267,221.02756802781786
-898.4790932683436,424.34164571999617,220.75122493410083
-921.6817159784433,412.9136861211525,220.44225092156856
-963.9061249254335,397.8341227636349,227.70976837146227
-987.0536829600325,394.1437697888678,227.3753014536055
-980.1104352658656,382.30792370483294,207.89566263708812
-957.8887795526506,370.3170807564255,184.72159198095173
-942.6379038713528,346.98597380349054,185.0285265610581
-924.515507334309,300.20751224934105,161.91054029663547
-890.7598415361006,245.64045826046615,146.90133735781333
-867.7203734200773,214.54625177813017,151.27591991148867
-909.1810149235469,172.62571826260753,186.11860319273148
-943.9135688537881,29.990261710166063,213.5520284704767
-1009.5047748211674,57.508731320073636,204.62747217449387
-1081.4702268358717,120.17865428051374,226.8858376713761
-1130.712322760576,124.63991271229217,249.68057389628467
-1181.0047263846473,117.25512789790602,245.0276088164664
-1242.0347417313762,129.47438727802054,259.77066582370134
-1243.064655106484,156.24703644975605,224.34266543620913
-1167.993147507049,167.73311987273945,276.4491442031683
-1105.7700641911358,151.953011476906,297.0576088674522
-1052.3675261174817,112.78061315535889,290.13985407860997
-990.9265651369225,23.42624647560584,303.1361372130137
-922.6545252456242,3.3076330857122467,276.7540393508487
-872.860762849699,56.91189142061765,257.69554333029123
-838.2903437973213,137.71675342752116,238.31787613507163
-802.1658772363652,207.32462155782048,266.09698520901634
-793.722626992908,234.48374317427465,281.8301866590528
-705.9097653123137,175.66549229349474,271.56980212406893
-661.7937827902496,66.64202352485304,233.35185817786916
-671.2159605981656,-41.862103776519,206.10504096709886
-675.6150163409524,-41.969173978881685,190.34124803067309
-650.8593658384872,-3.1184451367184516,229.8266992296044
-632.3821080593272,-18.913186460208127,210.53366848006203
-654.9310926769081,4.580340891129999,221.89024794399722
-665.8655096286705,93.65022714178644,221.42627706709226
-649.9365226657422,205.6553461171756,213.43782025462315
-656.9073026976592,252.24210102328527,224.95041629914397
-636.1948269796517,225.4235646219657,272.44675806722995
-639.2009503755106,171.59886403613876,307.90433022489844
-692.2496469232613,183.82628114595713,330.6164694365558
-695.0140975766445,222.7488489953246,353.9914241866489
-741.0920140924782,246.31856954209647,353.22153844585057
-767.7667705077678,269.7730621568018,356.667159529503
-764.431278775117,273.4756517261247,341.00635793058797
-752.8167111092984,281.12352332345915,341.15421678146976
-726.8516771782414,292.2476074908353,310.10895667735673
-690.6619487796547,287.4998088032101,243.94874906313575
-665.0191451718987,459.74721235080284,59.294458352240575
-652.5877848194848,506.21873932484596,75.02245924959085
-523.6079599047586,577.0757598160433,-107.74219534703492
-547.4825755992108,598.3674343430224,88.05983694737756
-544.8894372696079,502.4702625259391,182.61281885251339
-657.1642711833298,376.7555689251682,303.0188698485212
-802.3922542356463,239.15914201077842,364.10089072211207
-997.0091723473358,163.91836151998902,432.08333120892456
-1178.6491819326684,96.66736347274555,539.478823043547
-1371.732446860039,25.671049746855452,650.640126852697
-1521.233040844733,-15.45074005904157,679.9365736515529
-1545.1351888769357,-11.60875528340463,656.0170904437296
-1508.3744193990813,6.958492451550733,601.5611855220693
-1417.609479281916,52.15593500328859,543.8982731105934
-1361.8310024320233,74.37473551110726,481.8648570102941
-1320.593678779196,104.65551437035073,443.1350155251794
-1290.471261847828,158.3058434837585,412.0081781240281
-1294.6520983210373,189.14818006148892,396.1424135663045
-1331.9635145538998,209.06323770094784,426.9133700091265
-1290.9097398194083,231.57143367000967,384.28209429315825
-1228.329755828953,246.7754024055106,408.71551447232247
-1142.765368397975,300.3859625866122,421.5904513773817
-1075.2805494230956,361.1681868935876,355.67701508670143
-1010.1828861027979,418.4884746575029,332.9118506319691
-966.2871622827367,452.300224847425,258.8875915832624
-910.8044031346078,470.58169711369334,189.01357752137582
-873.4420010910965,477.71359230726097,154.22697863184678
-853.9032187342264,496.9423809353857,158.38028276730589
-845.378391193731,516.3975465627916,178.06488454263183
-849.8855368550934,500.8152631122759,162.3520774168549
-838.7063880122163,465.87366735837423,158.71271025273668
-823.427979993168,407.7926712995774,166.9866876048396
-812.848424283522,364.97580723284716,147.6661245175468
-825.417446324688,337.7789561165128,124.02196468722755
-856.4086614695132,334.1140960470701,119.64534270112628
-879.3390199507478,361.3741695686091,119.20992387818471
-936.9774591731123,365.72325921696,122.25683592256277
-1006.3395756960839,366.25861022877336,121.2157056691123
-1068.1323387701204,366.7001473489928,116.36389592776332
-1125.9604452080987,382.58732594718896,111.5192241999052
-1199.634941595754,356.0033242748544,102.656870592914
-1234.8661367541415,375.44421387527854,82.44007892603489
-1291.9600475187758,399.2392917051185,97.20312237104415
-1327.2932142984607,383.89562184843965,81.02705816971138
-1372.476839695513,399.9663493649718,107.76870796857237
-1383.2654372288196,392.5234407264459,131.17935278611964
-1375.7501287391722,365.38369371803833,131.38329602871522
-1378.6767142704189,303.8550371431631,170.7932882278862
-1381.9602004762078,230.65266936211654,202.38817537079433
-1343.4455191120312,168.55909000525156,214.94903968225645
-1325.2945705210243,67.7203734200772,203.78722601500004
-1294.111648728159,21.22865606501711,224.03369142367683
-1258.2788210041147,101.35346932948562,130.1096704787058
-1247.0517454992278,267.24314623240355,86.5471899170461
-1216.776371135913,479.2717186806912,27.416192073745883
-1169.6348906099433,683.8206727067858,11.733670519494426
-1168.9822722336376,776.669912763278,11.430202974512195
-1158.0203229441247,865.2526601846706,-24.026043552079457
-1166.7388965650862,915.2636221339601,-63.5715560359552
-1157.9693371334758,930.9183054355973,-36.02065945047494
-1145.997868793115,892.312869328466,-16.087960720531477
-1095.4709304400587,837.9691331902333,8.399983684540594
-1051.745499227565,795.4969332034896,56.29363748068913
-999.9031269597672,753.066541581478,116.0824542529814
-941.2551686865547,718.0759994493534,148.47577919065125
-910.427108135806,679.2186934376164,156.91800971789553
-844.8889274115014,605.3443326722174,173.8473382857551
-808.0159891502196,504.2200955474092,147.2684351944854
-770.9248316193605,395.427592501007,128.56785956468318
-726.4805004767175,294.20954148460487,98.17848092875754
-684.2000071380136,239.7893266303988,106.84484507961436
-642.9575849041212,212.14074123171523,80.0834127862216
-604.2868869593593,231.187000657717,80.59836947377546
-593.5176640340994,254.07045219315467,53.21011762426517
-577.0961541403028,319.85642395721277,68.93271402568666
-572.9979146803445,373.9554282043308,64.88698995069673
-573.435372935712,427.91167218163196,41.1506477747243
-577.5896967873841,443.31346586245047,29.262592220585013
-569.3911784350416,435.65335767056035,45.10969597161111
-550.1787052663244,427.767892195602,45.42407448007221
-542.7979993167902,400.59245511974024,41.70170241621757
-565.5641834877355,393.1362901704456,53.159743643344065
-572.3167442500753,393.4350670208482,80.52994651588465
-573.0805116935958,381.65836447716606,60.93507976730077
-580.3500685759154,347.0706102491677,80.56594249820276
-592.6743587259666,335.3826230160147,60.797723993412646
-596.5808915378851,269.74654953526436,72.73452198253227
-615.7658323688518,242.88212590436086,80.38698230282513
-618.7179108054229,196.7950319426104,115.8193674700331
-606.9942335048157,181.2994243701978,123.89653959303126
-640.1197146834037,151.06279922297625,174.52239041874648
-639.7923857790378,139.55836090815927,186.34090132716068
-674.200669953552,120.58552104949193,197.6628104398546
-735.3642681241811,94.1516216037077,216.45923939367674
-805.2444004833455,98.41923592664163,199.69918371717154
-901.7452442985118,114.56919539292217,190.3504254765899
-1009.5608592128813,127.00871347503991,188.69338663050075
-1126.4193175039388,143.03457347820103,147.6426710446483
-1245.277439288646,171.14101145651168,157.54105632402505
-1331.1477415835175,210.14005802185255,116.87681318289121
-1389.8731982889165,214.21586372512533,88.51136728648419
-1401.7324978458496,229.67782066250965,76.5076759137932
-1414.0608668607529,217.98983342935665,56.73935543738178
-1383.6937180382702,209.9116415901455,45.44762992459199
-1380.4102318324813,186.56727832644177,33.80165499941367
-1333.4115115763284,159.36838777768148,62.06981996910261
-1339.8867095287383,159.73548561435354,97.2931633126501
-1319.206864729546,206.28553073679598,128.8431829421872
-1306.5215950401005,229.6472291761203,156.42650650324015
-1301.9940550544786,268.40766214762436,168.1369274930787
-1277.5616545915275,299.4529222517374,199.79503704119145
-1250.6717380552993,326.2571826260752,192.2583145110716
-1232.3066490595668,333.6062773730071,165.03699020562578
-1194.7199094492005,313.7595407198177,142.11886831894685
-1171.6233372252502,309.71228707050835,142.47882814212807
-1133.3125991036698,317.08381557412577,135.17867977341908
-1129.9781270872318,320.78640514344863,119.51685845829108
-1119.0161777977191,332.13176772904103,100.01998643777438
-1104.1487154125007,370.49451137748366,76.56559579469034
-1077.6972768478533,393.3279968184855,57.26175605329038
-1070.508277546359,416.3093411103691,37.668724793889865
-1062.9623775703221,431.65708983189984,29.880744188892237
-1063.4212498661623,423.8164918703126,18.126373430274356
-1040.1717202102657,442.9820580932327,18.410058480724818
-1017.047615648565,423.4942615470115,22.746809562898648
-996.6074041594225,435.2250768611096,54.410323606940196
-992.3174580514244,439.1662800242693,66.23515675587485
-984.2841337255843,446.9130640942626,74.17864408335161
-986.8558580147146,454.98819678483477,109.4349242605783
-966.2524919314956,470.62146604599945,145.01180321516523
-953.9282017814443,463.0001070702024,168.770171261338
-960.6267175844963,471.0364905446815,196.1148812285541
-997.5516613726402,467.8763900006629,242.66798549963548
-1012.8565820132258,444.8511979116212,250.36582319140587
-1025.2634691765281,421.55680074235346,230.63533418649595
-1032.483059964412,452.6346917652818,238.27096918927467
-1068.0915501216011,456.53204713128343,210.2522268052801
-1106.1065705414185,472.4069891349238,221.40384331040673
-1194.648529314292,504.0069748588968,216.0462543274207
-1321.6235921543034,532.0695650400494,214.04964998240993
-1425.3185338520293,583.1665247561605,212.3232704338383
-1479.2921130049508,618.3334777931303,203.54759270495023
-1447.4871643221693,641.5126470303316,227.49358853431093
-1335.5733099478416,644.5524210612188,233.0836728138559
-1212.7790835810395,647.3321674577966,219.21553231735612
-1047.7074230241724,595.6916990001683,214.0129401987427
-871.016096220422,532.3887362147116,212.94835647239375
-748.5226861364483,473.3033196861314,203.20904692224155
-695.7452341013498,403.0785232469804,184.61350206237606
-700.4705990322894,356.5468330163716,169.000627125471
-744.1399458530691,329.5192547913916,137.04068157831676
-794.64445044944,349.1131018237625,120.52025921186134
-841.213870179929,380.2827673058588,104.01921145345253
-898.7166871459674,423.2852197233511,103.01275155124331
-947.7211891930476,462.5646882472608,125.69327956029838
-1020.2566625708067,482.61026956198094,140.23749190600256
-1061.6877323040999,483.17723177639664,167.08763950992443
-1107.7687079685725,448.81789398010534,178.287182677061
-1153.9516552543428,418.29370886082404,185.54756211346387
-1189.6927085192192,364.2283552487343,165.5713215012262
-1213.1155899313221,321.8509888697976,165.36329939377873
-1233.5303085151404,294.6796306587877,137.67698449521498
-1260.8790973472085,260.0347723228626,133.45943823833827
-1277.6840205370847,217.32497845849502,101.9552038667639
-1292.826806299807,198.20224031651995,113.56681435556486
-1288.615378340208,171.22870705082775,129.4193226025197
-1306.4910035537112,136.9693014434083,176.36297818317163
-1223.241371926193,107.90433022489842,28.572142372777655
-1350.1042659827772,112.82344123630395,34.50444341339805
-1326.9771022724376,131.95433710798287,30.861609214155703
-1294.1932260251974,120.62325054937212,90.26038453498393
-1262.520840450103,85.8399147517246,122.24867819285893
-1246.7764221217235,93.52673950839483,130.3085151402365
-1254.893363177028,112.79284974991461,114.42337597446631
-1243.3297813218583,112.70413443938554,114.59672773067257
-1223.5472867900864,166.75113315964168,118.63480393406518
-1242.4324310544378,240.3715845880092,114.1796637995646
-1188.7035837926305,286.2424987126083,99.13089587167892
-1131.4771099203094,281.79143744295965,84.30473199308634
-1070.0086166019998,254.23360678723117,85.31843188040769
-1027.4864505208202,253.9409482341065,89.88094813213483
-984.7440257376373,303.90704267002496,90.35266885225843
-938.3398000336507,326.7619421514993,90.97061687732305
-888.3267986519353,334.0784059796159,87.77044148613442
-869.2774800772945,322.2894668413781,84.17094522594363
-862.3056803291645,295.0120581442185,68.66891344138926
-862.7696512060694,267.8621139736812,60.90438630929013
-877.5014913349615,268.15273309437987,80.30581289227209
-899.2856887928091,264.8039850509603,119.23745621593511
-914.4539674608557,261.12280952211,126.8710517862879
-937.220151631801,253.66664457281544,138.32960287152088
-929.1032105764967,234.40012644481044,154.21474203729105
-905.8190105693587,238.1251497708188,158.47511637511283
-875.1551243288994,233.98408222991543,155.0243967103955
-828.6417889901243,253.0048487505927,159.58150846619387
-843.7825353204204,272.5018227427307,163.21271790060828
-878.1102619141093,323.0624117308153,162.5284883217001
-896.4784100584808,354.3320094017835,181.7705332605936
-927.0882513396523,366.2106835667634,185.19677973619943
-933.7041701294531,327.9254383505071,224.4731891114703
-933.0219799829708,308.78638474912435,248.095934901317
-902.0297451219327,273.83255240066694,260.45183625397055
-839.8015632249546,258.0524440048335,281.0603009182545
-790.2239806661808,242.08878669066402,270.0830558855471
-708.0470904947155,226.33111205151607,310.6126964865678
-635.485104495419,210.15331433262128,296.0562475463079
-605.4483437259412,194.26919488306407,276.9365685529717
-589.516297614374,190.41874646285942,292.8869695563725
-598.4235187347361,213.34808522788109,253.43007041140453
-669.4212600633244,213.47351032207737,205.26989338866994
-747.9914139894868,233.0020955168177,156.93228574487722
-845.9637082999802,233.33554271846148,108.36830110180338
-912.1004624413026,241.40761626039475,87.72700157546156
-977.8538032865455,245.71387782780056,78.87831216572428
-1039.0194408896004,277.2078130656239,85.70510826836892
-1070.3349257901527,265.7370253858351,73.50083871658518
-1119.5566273905974,254.75774092070182,100.27287605859291
-1134.8931592337854,227.8637455196219,107.98284837329773
-1126.4703033145877,212.5343516899247,131.70858550065518
-1111.0623913364911,212.41606460921926,131.94006108100118
-1080.8889885944743,196.56559579469038,116.74730922384302
-1066.2662581003708,200.11012935100163,93.40631102364213
-1059.2404133929529,199.87967348686863,73.88924862210847
-1063.390658379773,195.9721209587372,65.99093472286664
-1048.329449914089,222.79779537354756,50.427516022291
-1052.214568685535,218.95856383168567,50.382342594056084
-1053.0915246286959,230.32534045775063,22.85857045984103
-1048.7679278856697,276.75505906706167,26.691275817939868
-1048.421224373257,288.428770273233,34.50638087420272
-1048.3906328868677,311.6069197942213,30.503994738264346
-1039.9473826434105,338.7660414106754,46.2372981599221
-1044.4035424941242,350.2307107931863,26.50884858743812
-1008.9571872147982,361.74024768906816,46.62407651950463
-973.8126679345139,369.31266028664226,58.89880846160514
-932.4886684035835,411.19852345092363,20.130217760397283
-908.9862491268682,407.254261139125,32.26942941779303
-874.8237165596817,410.7182371146111,17.0710691214635
-879.9039427327375,429.74920079741815,-22.315469604808985
-843.750924117818,445.2988533291185,17.41981206630195
-851.2947846614288,468.57081674170087,17.228309361504696
-866.0816894658217,461.12280952211006,36.65502490656851
-862.2822268562659,472.66497733680717,32.74839012302876
-877.2322862547354,461.31553588636285,48.26123089944069
-907.7065052795808,473.22786068637106,55.61379268149675
-937.1426531996146,477.6768825235937,94.40410333804104
-967.615852508247,470.2798611146518,105.74661071823714
-990.0822401125769,486.0701666726151,121.05561022367476
-1028.2308433562941,482.6010921160642,132.26942941779305
-1059.4443566355485,447.9868252665284,127.99375933677659
-1101.6708050149643,452.21660811796085,131.27214696150062
-1142.806157046494,456.72069463068436,165.96187281079676
-1226.484069483463,438.3392901755442,200.09177445916802
-1341.7120015499688,416.1574033946353,214.139385009152
-1476.610259364819,432.63907654499764,208.13835509577686
-1550.2643614282147,429.2332243936513,195.27259563663435
-1549.4995742684812,479.6296390714465,206.88818301866593
-1497.5450332172559,549.2211917423382,246.67750964906472
-1434.475585444571,595.4439079604147,278.8638321955
-1318.6868094609272,602.3229135331637,284.499803704629
-1153.0339106626627,573.9962168528499,291.0004945623634
-987.9102445789339,510.7829890941352,289.7625590798081
-900.3145824517038,440.32467764221224,275.6139966247394
-846.064660205065,366.60735317361184,300.2228079925357
-815.8912574630482,312.13921165739583,293.00933550192985
-757.7613150260283,280.8798111485574,309.68475473275794
-719.5535682419583,292.08547261297184,298.4454426333152
-724.144330632785,322.8258375694045,270.79991638327056
-739.0138324504292,381.0098249657121,274.3057007234887
-782.7117313251723,427.35184798070696,226.3994330377856
-853.0293219397043,466.26625810037075,189.89359261317577
-915.5583201195109,516.7279346157965,153.46525062075227
-973.2783366389136,528.7809802531956,152.55974262362787
-1017.4667190120991,544.1042557856149,96.90138834362398
-1009.2151754166816,544.1807345015883,112.72350904743212
-1044.9337949248725,513.2935304104868,88.74467835601352
-1063.7577562164452,478.79551120923054,108.20208735908797
-1083.1425614251555,463.4691765281722,107.96347376525114
-1095.1344240897758,459.5871169053653,96.02310676938609
-1103.1901821723015,428.66218331438364,92.08210754946899
-1099.0909229961303,405.52278300948853,103.99575798055402
-1094.9406780093102,370.81164311971986,119.87273941662038
-1115.324805106739,347.5090882207482,92.1741879235009
-1137.2996894964133,317.07973670927385,131.19362881310133
-1161.4057807712115,293.84040421550685,107.36388063202013
-1188.5404291985542,270.8366261669378,107.03451229522825
-1227.6771374526472,263.26013470451176,90.77554516578037
-1259.0436081638481,244.05174040064654,78.59646260445719
-1270.7703446130943,240.23800176410907,74.50913410797776
-1264.3461324713332,232.1332973033605,39.31118169813341
-1252.7825506161637,232.04356227661845,39.48463542596096
-1214.471812494583,220.10574457128584,36.174228712149414
-1145.355447578939,204.06152967629112,33.339009753585586
-1088.4246914083812,176.36297818317163,14.662091539924441
-1033.818888203413,152.93907705485566,39.10672859743134
-972.3544737499554,144.6916123242902,36.13068682985526
-937.6178409548622,113.54234116645338,44.605344332672225
-875.3631464363468,120.94038229160827,61.21132088939649
-845.053101721791,105.1245838283206,49.94488433868855
-837.3195739625663,128.2435898089562,46.05813402130188
-794.2498202750176,166.70626564627065,58.347345933626684
-779.3272932142986,174.18792350088972,42.84714963825568
-748.8275812841288,185.4527285056569,31.49209974863996
-767.9309448180572,189.50508073603118,35.1168849709126
-772.1933585883049,208.74100737764684,19.289665686039577
-755.416987452392,247.58301764618912,50.80695242514009
-816.2002314755804,256.0017947005349,73.41579438442282
-846.6193858249251,275.65172612461953,80.74306720439704
-892.6983220569716,318.53079288034144,75.98354178032255
-926.1521518561385,338.41627874962404,106.81221416079906
-945.5287993351452,342.39929027751583,102.58447074179257
-999.6961245685327,350.4846201302178,93.89618269235673
-1001.857922940046,358.66274415830077,140.93191864704053
-1009.020409620003,358.85852967119257,156.5223598272601
-1028.4755752474089,370.5454971881326,148.34219636675115
-1047.687028699913,359.12161645414085,152.0172535983236
-1074.6075367225303,367.06826490187785,151.58693335644693
-1113.1426124109662,367.3650023198544,151.00875426368845
-1119.6484018497654,344.55497035175114,190.23519754452337
-1093.1357803123392,317.1970040737663,182.8748859192487
-1046.3308061366522,301.5362024748513,203.25187500318663
-991.8320731340468,281.9464343073323,223.75734832995983
-910.6361499594664,281.39068897125935,232.82466489575955
-817.9072364161054,257.56603937124305,246.0687390699169
-732.8312930511439,241.5391596518689,259.17005297425726
-643.7386875232623,248.69552803454803,272.25505141919007
-605.3402538073655,248.3631005491172,268.90630337577056
-601.623388211061,248.2988584276996,265.0375000637323
-660.6792329694647,244.56873652062635,228.84369280029372
-742.0107784003714,264.4011971468341,211.86031927314633
-831.977280722775,287.92095159917,167.2630306985566
-992.1502245924961,269.28461809078533,106.05660444698242
-1107.5647647259768,297.2584929614089,104.2333518581779
-1220.9470104469926,297.7112469599711,55.438401492864536
-1291.399203601638,297.9733140267064,22.985219213492886
-1268.20065975639,270.781561491437,31.27377850744138
-1234.4990389174693,227.7872668036486,12.300530762288856
-1187.0006577169574,192.9874116033508,56.30016366445219
-1106.4634712159607,157.50944512142271,53.70172281054184
-1025.834510255796,152.94825450077246,47.075504886989954
-991.1580407172685,152.68006913675924,47.595866070472596
-971.0186455109543,199.09245257044967,63.43950278637456
-932.7843861053469,214.16793706311537,52.18744423426961
-924.3962005373905,233.58843233928,67.94603661800922
-908.8190156679398,256.68194541459115,68.10154334048835
-908.6568807900763,279.89374557060773,68.0256764542428
-889.1446110547437,314.5640968118573,68.2009656712537
-893.7068213916068,329.8628991551651,44.53325039641468
-886.4647968470376,360.5828697873382,24.915032146553617
-858.6734511785371,399.1985030565994,40.899491671467835
-874.0048844406601,410.9232000734196,40.63028659124166
-854.1928181387121,449.53067561297695,48.646071798218564
-877.3964605650248,457.4120622230834,44.3473561307888
-857.9657681267304,461.1666573192681,48.550320445819935
-846.622444973564,449.43686172138297,44.83518836707745
-846.9507935941429,460.940280319987,33.01759520325494
-843.6968791585302,453.0364599531951,17.3945231042201
-819.8936435989865,433.7189560145412,41.363972406479284
-816.1492456649316,437.5245369213749,37.48262658502139
-819.5938470323711,437.65608031284904,49.20436642482398
-815.2763685866224,426.15776029530986,65.00639871923644
-826.618672023576,418.577189968032,72.71127245287637
-836.7617891940674,446.0554827591482,107.78808257661893
-862.9990873539895,454.17242381445243,126.9913782994193
-873.0606272274426,473.9477803327335,166.01999663493652
-886.538216414372,478.41413734557676,220.74714606924894
-914.9668847159836,490.8393794007128,286.99810842642495
-972.0322434266544,499.194934049854,305.73845298853337
-1039.5700876446085,527.2218341635523,351.7276541938379
-1139.1861644904225,570.6199364716799,357.9387456470865
-1284.414147542739,626.1179913630037,379.1233499717029
-1434.8630776055024,661.9936471679932,364.9747875166342
-1711.6140578077122,726.1042251941286,368.4622169650187
-1847.8481438615638,726.8037505162314,327.1728877853294
-1852.7325845217279,714.9882987564562,299.66706265646275
-1747.1001820193442,702.0011930679693,238.4993856209817
-1546.1956937384327,614.6288487913814,163.31163037326715
-1434.4959797688305,528.7901576991125,180.97311518204486
-1361.52508756813,416.1686202729781,198.1441164923802
-1253.5167462895079,295.64428219626484,227.64042766897975
-1136.5145080124203,183.1063614995947,292.56677866549745
-1050.8889376086636,147.90677754380957,325.3649309397195
-974.2878556897617,139.47168503005616,314.7670203382399
-849.2604508165379,169.84495214981672,359.70897299281614
-818.6781418731168,212.02653301586173,344.3255342038311
-849.5347544778289,247.0150357155604,335.8965599873556
-873.228880402584,301.11607939510435,307.88699504927786
-935.6222563260645,370.9207527545085,271.3944109354367
-982.2742730698048,448.4130666435531,242.9626834851861
-1053.6013827351849,498.6606027542535,175.00573590369802
-1071.7217398398027,526.129718099453,202.11387170950326
-1059.281202041472,587.0557223924582,103.97944252114638
-1085.7938235788981,517.8659379094798,131.28846242090827
-1126.2051770992134,560.1729438697212,67.74596829702294
-1166.9122483212923,587.9571515247308,110.21296773108044
-1033.1560726649775,429.17000198844664,-220.83994024462996
-1099.0093456990921,89.74145095419946,-161.8126475401896
-1074.709508343828,-284.74555531195676,-50.29546277271036
-1140.0325289471941,-329.5396491156511,74.46498039595582
-1156.2766082199325,-170.29464699974,128.62904253746183
-1194.2406428291008,-108.06340595412297,131.77486705449874
-1217.7451015382421,31.04709559329639,91.70756578444221
-1224.1489193557434,197.49557698092624,94.97483850244478
-1231.2257498738102,286.5361769819459,94.56837961995177
-1187.1128265003852,293.36929532511107,32.41218968760994
-1157.6226336210634,277.34853390301487,-2.413607093145978
-1113.754442138753,249.36344215404856,-64.45595590747097
-1065.2159504010035,240.86206808645156,-106.87135770115178
-1022.5816155363964,256.04462278148,-102.35911345872445
-988.0907343486308,325.2425649941622,-121.69905115406384
-955.7371783432671,387.1770686218026,-90.02635966410548
-940.5688996752205,410.16861007581593,-101.6505126623261
-920.07464322679,429.63703201399056,-70.01228758036639
-897.0076427730164,383.1022826347428,-61.66050588121326
-893.6446187026152,352.05396338199085,-69.35467259461693
-880.9664870266605,336.797989119628,-33.79166178052648
-865.2526601846706,340.61580662101744,-25.719894153457098
-842.5680533107637,336.46556163419723,-37.14000193746081
-833.361035623786,336.7826933764334,6.167661739737832
-830.0520565126726,317.30611370855496,-5.490937272157159
-837.5959170562834,301.9593847032371,2.29708412148899
-867.6591904472986,275.35600842285595,29.40881952552605
-878.4824583318463,264.04429647229176,52.83261868222074
-916.7717824129546,260.5415712807126,60.12012256988881
-943.7188030571094,264.61839670019833,59.702752723916944
-989.4153457092892,265.11295906349267,74.715014811378
-1023.7746835055805,292.49539853058894,78.0326615103017
-1062.1669989241996,292.82782601601974,81.38100166723602
-1058.4756262332194,288.8947805825639,77.52494480785998
-1043.7713184420777,284.7363778660399,58.13616270591895
-1001.1940876853973,272.87096001182874,66.66323362208298
-971.4295911447845,276.2278657849521,35.70077447446376
-970.5842464042257,280.3016320557989,59.24744943482229
-993.8694661275769,295.8869746549536,50.99682358399658
-1035.4912227926968,307.9910061030016,69.95559135892482
-1043.2308688491994,323.49171225647905,65.86275639489531
-988.5710206849435,327.1147639611896,86.2923628354229
-934.2670534790169,299.75373853456585,102.89650390296381
-856.7339509414531,268.38012980987395,123.78742995824264
-771.9302718053567,232.97558289528027,133.02605884782267
-676.0300408396345,228.26041512647032,122.70449134006007
-571.6865596304549,231.3940030489515,132.10627482371657
-513.0396210734554,235.021133618514,156.52032039483413
-463.1622419480659,222.99460060265233,153.38265360750106
-459.49942131104916,234.50209806610823,145.55021337561757
-448.9208853176161,230.30494613349106,118.25037092177249
-494.9722892119124,257.7424502760882,117.46824858641841
-597.925897222803,297.43898273110597,139.339121922369
-665.7074536156589,348.5757113795231,173.47310243559218
-796.1811627823978,407.65195046218645,175.24434949753487
-876.8590701207855,462.4056125180363,169.92652944685494
-949.7748976459852,486.2170058072839,172.67874350568238
-1046.7692841082328,471.34954342206566,155.57708289782954
-1120.0053025243076,468.04566289201716,154.49108513100805
-1147.3133027078566,460.44877710533166,146.25891614363724
-1212.9524353372458,460.91988599572744,141.34898257814854
-1221.9157408493218,418.18459922603546,113.88700524643991
-1203.0000050985811,367.74229731865626,114.34077896121511
-1248.5099396837861,356.6977510158923,137.24360510469938
-1240.148266737367,333.63177027833154,160.99483513738127
-1239.5466341717101,322.1966726659971,180.66516088572553
-1242.830120377499,306.9223435118007,200.29061912069875
-1246.164592393937,341.83844636037793,207.97214135306146
-1198.5540424099975,361.13351654234634,243.94161104964493
-1181.116895168075,372.11178129126665,189.2215996288233
-1147.1705424380395,383.24504290455974,166.14440201291984
-1097.8366720541674,371.080848199946,147.3010661133007
-1071.38523348952,335.98527529788464,139.96624739335044
-1057.710839073486,281.36213691729597,101.1095532113413
-1068.7237741736476,242.96982149867694,124.62155782045859
-1057.4355156959818,223.5024192767153,120.93222456190443
-1045.0051750597809,231.35627354907132,144.6396067974283
-1006.937129396889,242.5282843784575,129.47336756180758
-974.7457082693887,261.94164164113135,165.21136167804502
-962.585592429627,269.72615521100477,181.06590935742585
-957.4778339188205,254.563994840236,220.44021148914257
-941.8180520361184,250.64420571754883,228.53675822018735
-941.1358618896363,250.8155180413291,248.16935446865142
-950.8976051964739,274.5269791417049,295.0385707657559
-950.6253409676088,313.2150122620875,294.91212595534665
-968.3663636409989,356.2276618417095,329.823130222859
-975.9377565223599,394.9401681512036,325.6545303442052
-978.9469390668578,437.66219861012684,341.1644139435996
-1010.074796184222,453.273034114606,328.87071527993766
-1035.6339830625138,461.56026777747763,367.70660725120206
-1047.6054514028747,461.54701146670885,355.75349380267477
-1080.6442567033596,462.2251227483392,402.35146558712717
-1119.89313374088,439.17341803776014,386.143076381843
-1151.861237017738,392.78142892832926,362.2725395522427
-1171.2868308749676,389.02785354835754,358.07028903856065
-1294.6317039967778,405.4208113881907,352.2426108813918
-1416.6101573931978,480.08341278622163,373.71171602942906
-1458.500099422331,530.7388353821132,376.8371462222064
-1411.87867416498,526.6151030168304,389.3235712501211
-1328.1905645658815,487.0684688451205,367.1630985096848
-1244.5942294259507,455.22477094624566,341.050205727746
-1180.4948682781585,388.7107218061214,314.761921757175
-1131.079420597248,349.5342446197224,303.86115544044094
-1054.8352393528883,290.80572876568453,293.4274191492508
-1012.9871056884871,193.79400712781637,298.3057415121372
-972.4798988441519,119.61984979580185,259.91648524215714
-951.9203805580909,26.112586867074896,205.59518286060992
-934.9155929904709,13.810424558845275,143.09779588340567
-958.2283450515722,64.14555429224048,126.8802292322047
-1000.2100615398735,199.74099208190364,110.09570036658798
-1046.6979039733244,339.06481826107796,73.60750103246268
-1089.9644628899778,485.9243472541593,17.519336368688595
-1204.2338617162845,599.1475172459506,31.12418613899752
-1238.3433690403963,468.2547047156777,74.2257549723912
-1206.9259125185463,447.8563015912672,-15.50121601158398
-1250.0599083275126,478.89442368188935,-43.72430952465929
-1229.1761202857247,475.2866677203735,3.69603279407341
-1221.446671391352,517.7150199099591,-4.180499966859223
-1212.0244935834357,548.9815584322884,39.02596707336349
-1197.1774255224773,544.8568063507926,23.563806192736564
-1170.4812550667152,525.2711170481256,20.105132741558027
-1163.3738330622589,459.40866656809413,16.50920548811266
-1133.0882615368146,381.7960261659181,17.224638383137975
-1137.0243661189093,331.60151529829255,25.184339198401087
-1114.2235115967228,323.61713735067536,17.70339514513111
-1094.6041716590275,315.83262378080184,29.797433374291938
-1067.4389317452953,304.08753243972205,38.09323265335257
-1060.8209735230687,303.7540852380783,6.796520728281321
-1047.2893393768516,307.02431513309847,-47.95653969500289
-1040.294086155823,302.9250559569272,-67.46095761549562
-1036.2764042766898,287.48961164108033,-59.49942131104914
-1002.221961628079,294.78772057736336,-78.63704730973372
-999.268863475295,282.94677591226366,-102.10112525684104
-964.5057180586643,274.9756542754152,-97.62834403185595
-941.656936874468,274.72888295187454,-105.13478099045038
-895.7972396282116,278.1377942518597,-116.23337225250215
-872.3763976485345,262.5871220039463,-104.05592123711972
-852.5357792926229,247.1343425124788,-84.08345357487012
-818.2641370906479,246.7641855271678,-95.34265014046592
-794.6250758413934,242.85357385039745,-79.27691923337737
-789.844646234953,239.19483207823265,-51.72061815196832
-797.6872836289662,239.21930526734414,-55.76277322021283
-815.8096801660099,247.3790744035935,-24.664793787888833
-823.1077891022929,266.85157520662,-16.99061351225954
-852.8722856429057,263.4936497172837,13.971845635359681
-887.0083055885548,263.8984770538359,29.157663422269586
-952.1355406790292,279.9477905298956,35.97721953980208
-1012.945297323755,284.4977642722031,58.598705980125736
-1059.1282446095254,273.28292536187183,61.86934376163115
-1075.1989721260575,257.7903769380982,45.982471078298914
-1079.655131976771,249.94570011165897,30.24376316071238
-1082.9590125068196,230.8025676454243,49.881865876726515
-1074.842071451515,250.15576165153243,57.7874197610805
-1078.8597533306481,265.5922256835923,49.825883456634024
-1074.3831991556751,277.3046861058568,65.55194689317963
-1057.6292617764477,292.9685468534107,101.07161976821851
-1049.7570526122581,277.50251105117445,109.09127989680474
-1002.1842321281989,273.6184119959415,149.06313572932655
-937.5199481984165,249.72952027450762,130.48900490993358
-828.3960373827964,229.89502021587396,171.43672915827526
-720.2255612263108,229.1302330561405,180.90887306062726
-636.2407142092356,212.8300693916883,162.59884874039557
-597.4333742919346,212.6006332437683,171.02986238929708
-559.0624729137882,227.70976837146227,163.70422111526366
-555.2640300204454,239.2519361861594,159.7976883033452
-574.5591002024138,254.841357650166,155.53119566824554
-628.834515354377,266.76082046366497,142.90506951915285
-732.6599807273636,298.5147833357977,141.24191237578583
-817.2739926478463,322.3812413005461,139.89384754222903
-902.4865779853468,338.37447038489194,122.8656065017106
-983.4092172148493,358.30890263239746,117.66097495067126
-1056.4361938072634,385.9544288824421,116.47402527876494
-1129.3459030351855,371.1481494700025,127.20551870414465
-1191.609774999618,363.75010834484766,110.5994401757991
-1215.2162053300567,352.21915740849323,98.51121432905224
-1233.968786486721,348.6368943523018,113.94105020572776
-1211.2495092615725,309.73676025961976,110.4882911085845
-1212.0754793940848,270.91208516669815,94.90804709049472
-1187.999979605676,270.97326813947683,122.7412011237273
-1145.3860390653283,262.97665359730394,131.25481178588
-1140.3894296217366,270.9579723962821,162.69980064548037
-1143.0202974512194,290.6048446717279,193.99183207313408
-1146.1100375765425,302.41213870179934,213.52857499757818
-1136.4941136881607,341.44993448323333,260.63640488851956
-1135.321440043236,353.3306480806392,292.01103332942444
-1126.6538522329238,334.2007719251733,323.60184160748065
-1101.375087313201,287.22550514191903,284.8934141628385
-1052.2349630097945,228.67136076030044,270.1279233989181
-992.5662688073911,177.49078431472523,224.0989532613074
-993.3035236293741,208.2015775009815,196.51155083540252
-1018.7515614404512,270.58271682990625,227.31717762946576
-1052.5612721979476,356.03085661260474,234.37157439084706
-1037.7040069748589,437.8692010013614,312.81120464174825
-1003.1855934493432,433.6985616902816,309.4175890849577
-965.5774397985042,398.41128214018045,290.47636042889263
-939.7755604615236,367.01421994259005,263.49670886592264
-943.0559875186736,371.04923699734366,279.13201755951326
-951.5002574783439,401.8191737239527,251.42938720154183
-949.7555230379386,456.3230053076229,290.51816879362474
-987.6634732553931,487.6731605594164,301.6187994881025
-1037.0004027879042,538.4560476819302,312.48183630495635
-1102.5069723096062,577.5805193414674,303.5195505090934
-1152.381292286357,608.9174182824921,302.66706775504383
-1214.9408819525527,616.8915990679794,274.23024172372834
-1286.494368617214,641.0456170047876,316.2476482794838
-1332.8404704970608,645.236650640127,311.6150775239251
-1343.96557438065,629.987814391255,327.19838069065383
-1391.5455328782002,595.2532210285879,295.2058042246843
-1533.5716070217659,596.491156511143,308.77210872214266
-1641.2026533015862,616.7019318523656,311.01650410690706
-1675.638469813851,613.16963489061,318.36253970520005
-1594.9891145294266,593.166881656835,315.7133169838834
-1449.4246251268273,526.1654081669071,306.3462038514682
-1297.6602611493222,458.72749613782486,253.90219901801333
-1156.5519315974366,403.19069203040794,224.8056165969011
-1049.716263963739,348.0240449083021,206.96874059949118
-969.9387660414109,320.07872209164196,180.7865071150699
-898.0314378508463,288.290088868268,150.57333544074686
-868.3495383234846,318.6602968393896,111.66912248321293
-914.8638933784729,318.9488765276624,103.12288090224492
-946.319079400203,326.7527647055825,83.00194255938574
-989.007459224098,342.4523155205907,70.53560594086667
-1028.8222787598213,373.3242238684974,26.664253338295957
-1079.2982313022287,396.7858544966936,10.130503280936916
-1121.4431023846066,393.3137207915038,17.360158667842743
-1148.720511081766,389.5846186006435,9.115008693080716
-1160.2229099641572,378.10159432629905,12.906038249555152
-1144.0706051505867,347.2725140593373,40.72430442607823
-1174.2440078926036,324.5032707397532,63.89684550789516
-1227.8912778573724,213.00036199925563,94.86644266900522
-1258.829467759123,139.83572371808927,106.42370228365448
-1233.9279978382017,77.31712664365507,59.91220243406261
-1208.2005577847685,53.62289874727864,28.98043674445402
-1217.2250462696234,119.00598063558913,-22.395313384285156
-1197.4425517378515,192.36334528100832,-22.346367006062216
-1181.5043873290065,227.13056956249082,-14.375755227320237
-1161.3649921226922,254.2346265034441,5.4575313690200025
-1139.206558814682,292.4352352740233,-29.660893373374197
-1102.7415070385912,287.75575757266756,-87.96826643145214
-1045.5966104633083,291.0066128596412,-106.7459326069555
-1008.0129300015807,329.0889345495149,-141.63348340156935
-992.0808838900135,344.5478323382603,-129.67323193955124
-968.032916439355,360.0485384917378,-105.8169711369326
-979.0754233096931,375.71545838793065,-94.26185292633062
-1007.3134046794778,376.60363120943447,-20.120020598267505
-1056.8644746167142,357.8173994177421,-1.1757633850499407
-1049.8896157199451,349.85035664574553,-20.66760820463665
-1008.2372675684359,264.37672395772256,-23.679951869394753
-959.6416717227596,205.684917887352,-54.15090780235862
-971.8833648595597,205.60334059031373,-73.9571617218928
-966.1760132155222,236.93412123406057,-26.881962749766746
-965.0043592868105,287.43250753315357,-3.4870011675750643
-977.2022046264526,377.18181030219296,70.59525933932588
-1010.766163776621,420.21077534122264,93.4951283057925
-1007.3215624091818,381.45951981563536,89.75287177578481
-975.9724268736013,223.01499492691187,137.85237568384719
-915.0505014454478,98.77348533903016,143.1090127617484
-821.7485073903933,40.33630240704013,180.02477910397536
-839.3528880912443,83.38311247979688,218.86271050766575
-883.115029087405,184.77155807538765,268.884889335298
-919.1691352296657,228.17271953215425,330.99172500293173
-914.632417798127,189.6947479516451,358.66274415830077
-945.814319874779,139.6399382051975,358.36396730789824
-1056.4056023208743,-10.817965360240247,310.1191538394865
-1148.1392728403687,-180.8364732095058,254.37432762462208
-1214.5533897916212,-288.6887979075424,249.81925530124968
-1273.5541698745242,-323.3000056084392,221.57923449903896
-1284.9240056492279,-296.1296671136423,221.31716743230365
-1245.4100023963333,-215.0816027899436,233.40998200200886
-1174.4887397837183,-110.95634085034135,257.6690307087538
-1066.1846808033326,-34.449582681139844,255.1085232979662
-966.7062656462708,-19.953602912309506,233.0020955168177
-901.4423885832574,-16.659205743041714,226.11901107921668
-806.8229211810354,-48.729076697954966,184.47380094119808
-755.5740237491907,-84.57985142734778,114.71909367622993
-774.6692295534154,-85.38440751938737,8.470996721612376
-834.2726619181882,-12.013786563199464,-59.38786435734936
-930.7204804902797,89.11177619268558,-84.72138803770912
-1037.3675006245762,190.668576935039,-70.96296900572571
-1102.4661836610874,249.20538614103697,-72.13564265065033
-1132.608994916715,268.92363855139115,-56.95522935966922
-1083.85636277424,233.44465235325012,-87.50215415049992
-1065.37910499508,217.65026793043498,-106.79487898517843
-1045.8107508680337,221.438513661648,-98.6655993636971
-1061.4124089265958,233.0948896921987,-106.7877409716876
-1086.4260476309444,260.82913125277236,-56.236125486277174
-1077.299587524792,346.086584103644,-32.839348809226394
-1083.264927370713,419.95992515283007,2.1437290002192393
-1081.225494944757,478.4008810348081,49.07261909010723
-1076.4430259058906,513.3608316805434,68.64943686172138
-1056.466785293653,517.2520687492672,88.55858014714507
-1045.4538501934912,497.716345541036,77.0155965594775
-1014.375959170563,493.6782693376434,85.34392478573214
-991.7453972559438,462.48107151779664,77.93894959032902
-976.9595121677638,469.92907873738744,58.51223404526521
-970.1794190676736,454.1887392738601,35.11912834658115
-985.5924296268349,434.9986998618285,38.8775983643752
-986.8466805687978,430.8219422534709,3.551335063451842
-998.5163129101172,434.74581024100996,-0.5613201246093212
-1003.2151652195195,430.70161574033955,-24.165744673257436
-991.7912844855279,430.57823007856916,-27.918912166744
-986.1655101385286,450.30260078620125,19.194322220126143
-1008.4412108110315,473.86416360326933,38.40424609831084
-999.452412393631,462.5412347743624,77.82331377177732
-1017.0017284189812,474.70644919518907,124.61441980696775
-1008.3953235814474,486.4576588335467,148.25144162379613
-1006.8147634513317,537.0590364701504,183.42655239046974
-997.8545170878946,599.1046891650054,206.89939989700866
-994.5282028011607,646.2818597584293,293.13170144748716
-996.5553986325606,673.8029806304907,340.1039090821025
-990.0567472072523,682.1605747120577,414.73999785859604
-978.1964279341059,666.6986177746734,426.7440971177721
-962.4275364166155,658.9457154074022,438.7808272957637
-970.761677025284,647.2618070391011,422.99664003507826
-970.298725864592,674.4117512096384,430.7607592806922
-1023.5095572902063,702.0460605813403,445.56907812555767
-1072.3029780812003,733.6562434674431,476.1289533122932
-1102.6089439309042,768.7813881396809,483.40564820810374
-1159.4581228044237,769.466637434802,510.02432023167955
-1281.4977591736222,711.810863036817,445.59661046330814
-1417.6808594168244,681.6293025650962,412.2610677448467
-1504.5810750868034,670.1646331825854,352.12942238175117
-1517.0216128851341,643.0014327012793,332.411169971397
-1510.4240489871672,619.4908556948602,305.11744581482975
-1481.17858799896,587.9602106733697,266.41513666746545
-1459.183309285026,583.6396730789822,235.36273854986163
-1414.1628384820506,602.2841643170707,196.72773067255386
-1321.603197830044,574.5570607699877,206.0571143050889
-1204.1828759056355,534.5026079242148,156.93126602866423
-1100.2737938031846,495.0467284954598,162.54480378110773
-1007.6040238001766,463.4854919875799,175.81335114437655
-928.9441348472722,431.3970621975904,118.23099631372591
-886.3383520366283,423.40146737163053,126.7456266920916
-895.6809919799322,423.0506849943662,79.5109441042558
-915.6031876328818,446.20640075866896,55.58666823023154
-962.9904197661791,457.8617570730067,19.51594071369938
-1021.4701248642505,458.1370804505107,-0.984113841118017
-1110.430167284445,470.32472862802285,-14.131635165933323
-1203.4588773944213,470.9018880045684,-31.225545930567527
-1299.709890737408,463.943344567207,-28.719185450689075
-1357.874503525669,433.40488342094403,-33.4119194628135
-1397.194760698098,398.74778849046317,-49.582579168217485
-1429.4891731631087,363.8592179796363,-85.27019930353384
-1394.4313297609276,340.51587443214555,-68.9677922634131
-1395.899721107616,286.0803638347448,-100.20312746962522
-1407.6570490432514,297.70716809511913,-108.26734919671856
-1409.4517495780924,254.7750760963224,-151.3207874248597
-1374.8017926611026,250.63808742027098,-150.78747584547222
-1362.7997328343524,235.2108008341279,-134.85746916633101
-1354.7643690760863,223.64823869517116,-122.92373032585033
-1336.531843188041,211.65331688191182,-150.08285194230447
-1301.2292678947451,184.5094910086523,-125.91455797851458
-1255.6683474988913,183.98127801032976,-144.85374720215367
-1201.2868818607783,168.22666251982076,-128.28743760611422
-1148.312624596575,183.01152789178772,-158.94112668444376
-1101.7217908256134,194.32935813962976,-150.43159488714292
-1058.7611467728532,217.31682072879119,-138.09200899389702
-1054.6312961102926,236.6649161538344,-134.17120015499688
-1020.011930679692,247.96949009090773,-137.61478180622333
-1010.6927442092866,283.070161574034,-98.34754987686928
-979.5924194296728,282.90088868267964,-90.03186613165558
-967.9778517638542,309.85810648896415,-93.87344302080731
-932.6691581732805,321.3329730336048,-77.68483631005492
-936.4961531205867,325.2313481158194,-77.7552987003717
-928.7065409696482,317.4692683026314,-73.68775269842403
-885.7193842953508,325.0161879948811,-57.370865688079014
-835.5962535626336,309.1881529370376,-52.64203372201517
-808.1036847445357,305.2479694900909,-36.51848490565076
-778.5839200950377,254.47731896213284,-63.37730009738291
-702.1949391484351,137.85441511627317,-57.91508823094534
-588.2518495102813,-2.4829987814391257,-75.35794588366059
-468.9012047947057,-96.11804234881434,-57.55584220911321
-402.41060912747986,-92.51569088322721,-29.099641569751142
-426.3596641054795,-10.448522176278344,40.90785334441426
-574.1665094604173,149.67190630847438,77.39992760014889
-760.1250172077112,287.0134041696196,129.09607256300572
-927.5512025003443,339.06175911243906,177.43266049058548
-1012.5996135275554,301.0283838007883,176.2864994671983
-1044.270979386437,258.5735189896652,160.25758031539826
-1118.7408544202149,235.65335767056033,127.82244701299629
-1258.6969046514357,236.4171251140808,90.40141128723877
-1344.2103062717647,229.16286397495583,69.52190605354531
-1409.8494389011541,210.32462665640156,68.60212202943922
-1411.1036898431169,148.2198304211938,45.24521625631587
-1282.4358980895618,108.99542657278481,98.32481020531988
-1125.4301927773502,26.429922552553627,89.18142281003198
-1011.6033507874758,-8.670014734899278,157.7235855261481
-908.34994620997,-25.119383275634394,139.70214089418917
-816.5214420826684,-22.135795608082272,121.44514181703234
-781.4044551401346,-18.432288294167737,133.7317024672034
-766.3187734853391,12.261679574574398,118.15655703017852
-766.9458989563205,39.13752402706327,94.50821636338608
-786.5132333671539,54.65862450480032,82.3888891721434
-813.4337413897713,81.91370141689569,77.96913319023317
-867.1646280840043,93.97072394752541,81.04826826694132
-989.8222124782674,149.15389047228157,86.87400896330553
-1077.39136198396,204.17063931107975,105.00017845033729
-1183.564214079222,255.6397954449277,142.481887290767
-1271.6269062319957,279.63881651736324,152.85546032539148
-1331.5964167172278,307.57190273946765,195.0339820427975
-1351.6746289507632,326.8251645567039,167.19572942850007
-1346.8717655876371,327.0352260965774,194.7392840572469
-1343.129407086008,311.530441078248,194.84839369203553
-1307.8472261169718,319.13650431085034,211.04964488382885
-1265.9470869257086,307.1007938490718,199.94391560828623
-1235.253628915073,306.8285296202067,196.4799396328002
-1188.27530298318,295.07018196835827,220.77059954214747
-1160.0801496943402,295.17011415723005,256.5147119556628
-1160.406458882493,306.67353275583406,244.69722076346156
-1151.820448369219,314.55695879836645,268.3464791748457
-1155.562806870848,310.7523976077458,272.22751908143965
-1144.7436178511523,341.37345576726,244.814488127954
-1109.1861135046117,368.35718619508197,264.8794440507207
-1078.2581207649912,383.59378584939816,265.2914094007638
-1059.423962311289,398.78347855791736,249.82333416610163
-1047.2383535662027,391.12744923087905,269.65477507609637
-1027.669999439156,414.2250411710422,273.79482290078676
-1016.0278994355872,425.74273579662787,273.9304451571128
-979.7107065103783,445.1948422753948,317.57939765363307
-965.995523445825,441.7838915429836,380.5907216021782
-922.244599328007,441.7981675699653,420.4922170160045
-905.7394727047464,441.953164434338,452.1350308209226
-870.8672176533272,410.8375439115295,464.53681940316017
-845.5558218147892,367.7321001565265,425.8151356477493
-839.8382730086219,336.27793385100927,374.9863612956515
-828.7141888412457,312.9080776819811,367.383357211688
-818.1346331315997,308.709906033151,340.0835147578429
-861.5041833857639,285.6204718226918,315.964167172276
-915.7530859161897,301.40873794822903,303.3237649962016
-958.2232464705073,309.4400228416432,298.7360617540139
-1014.7716090611984,333.3717426440222,329.2051821977944
-1034.5326895524977,360.4309320716045,309.1952909505285
-1046.9324387023094,375.7552273202368,281.4855225790663
-1049.9202072063347,422.3470808074114,296.9821498676918
-1075.1479863154086,457.7495882895791,339.6552339483922
-1097.5613486766636,500.5868466805689,350.94859100712273
-1126.9189784482978,555.2609708718064,381.7215868823707
-1161.242626177135,605.8215598598911,381.0373573034625
-1242.7383459183309,641.0598930317693,356.1491436933102
-1479.424676112638,709.1177925183422,403.3946352730036
-1706.17897039254,776.6760310605559,403.6944318396191
-1811.1485573564878,819.727429856271,366.6552798356218
-1843.0962663090863,796.5135902678286,338.7833765862961
-1753.6365629445327,713.9410502057278,269.7587861298201
-1651.8790820514653,600.5679819306288,228.49393013924225
-1508.2010676428752,479.0280065057895,176.1121279947791
-1342.9764496540613,364.6362417339255,76.9324896881198
-1259.8695782963603,263.156123650788,51.04750347978158
-1180.7192058450134,184.84803679136098,17.175692004915035
-1076.8305180668222,141.52335405056775,22.802486068127244
-1031.4327522650449,117.7833408962286,3.9394594484355006
-996.7838150642677,113.64635222017714,4.472495704445453
-1012.4150448930064,121.43494465490257,-3.6371747742603238
-1046.9324387023094,164.22427638388237,-8.22319548469661
-1114.7741583517309,226.93274461717306,21.946128392468378
-1194.7912895841089,297.297242177502,32.28390938801732
-1262.8165581518665,352.23445315168794,58.55190100595005
-1337.7147139950953,430.6149398622363,104.2608841959283
-1337.5719537252785,449.95793670621475,104.19766179072366
-1306.9906644980704,453.5208251543596,96.79482799936778
-1268.5983490794513,453.18839766892876,93.44648784243347
-1242.004150244987,456.74618753600873,82.05890900562375
-1231.6438335211312,421.59962882329853,54.86032437172736
-1205.9469849540874,374.72735337755506,27.93094481805714
-1197.1162425496984,335.33469635400473,-42.446911024661844
-1182.5750893526333,288.6541275563011,-57.77008458545988
-1180.3011221976924,257.33252435847106,-96.87660923964862
-1149.9033818888204,272.43248204024826,-112.17082285999808
-1130.5083795179803,253.00892761544466,-103.96516649416468
-1104.046743791203,256.5320471312834,-119.2792645806672
-1083.9379400712783,241.1475886260854,-91.4539623622746
-1045.372272896453,264.02900072909716,-94.87816940545447
-1041.8440547995494,275.5028475575248,-106.63784268837983
-1015.0092029388222,275.26015509883604,-110.15994248800561
-983.7181912273815,282.8621394665865,-97.94282451193834
-960.6787231113582,271.0772791932006,-97.55788164153917
-926.0246873295164,266.9402905171491,-97.02487597701561
-914.2194327318708,263.0510928808513,-88.98563729714022
-910.3108604875264,270.7591277347515,-88.95310834994622
-894.9794272254032,278.3427572106683,-92.67364492461749
-909.4390031254303,298.01104352658655,-69.40892149714735
-932.9964870776465,294.2176992143087,-81.52284419246125
-951.2545058710162,302.34381771552984,-54.35138400983006
-994.1611049644885,287.0939617504449,-66.71646280840042
-1047.1567762691643,287.7496392753897,-40.04017681879134
-1074.2404388858583,291.79281405984716,-44.38416788607731
-1131.7422361356835,296.17555434322634,-37.411042506870345
-1178.2310982853473,261.7142449256372,-37.991057088812184
-1190.355524057655,180.5601301157888,-37.89897671478028
-1133.1290501853334,60.25207384784815,-28.786588692366916
-1053.968480571857,-56.6738896565086,-54.67891685743859
-939.4308963815371,-169.8276169741961,-60.43062615674059
-833.6955025416428,-201.10231322622917,-3.796648192807942
-808.9959364308913,-112.06069350899647,23.745315678646637
-932.8363916322088,51.95484696608935,84.13087037877361
-1118.7408544202149,235.65335767056033,127.82244701299629
-1212.8198722295588,325.7881131681054,173.20389735536602
-1204.5397765801779,310.4250687033799,193.00270734654546
-1094.716340442455,208.66758781031243,159.67022377672296
-908.2979406831081,79.16515833643497,119.7279397143775
-739.7531267048381,-7.358649487847533,110.77075249957937
-597.6648498722806,-39.47780332733401,105.15823446334886
-563.4472526295932,-28.27632269939276,89.93468717655878
-601.7375964269145,26.149194679120804,85.25286412791321
-686.1058567400693,84.83467850897097,83.79110093660935
-724.0423590114872,150.93431498014104,86.92448491584793
-808.7919931882958,194.07646851881125,77.66026114932215
-885.9161895244555,206.24372237206387,72.5393482993683
-993.7042721010745,222.5520437662199,70.86976694385953
-1070.742812275344,246.32570755558731,65.7109206507829
-1128.305792497948,262.2812071400529,68.71959333717427
-1147.4050771670245,285.6418858631643,68.35463690454947
-1182.4119347585568,278.10414361683144,60.00642421214177
-1189.7436943298683,293.70682139160675,67.69324896881199
-1178.7001677433173,297.3492477043639,52.14787924520606
-1154.7878225489849,312.81630322281313,72.0770089684041
-1154.2473729561066,312.95396491156515,87.78318793879664
-1138.7476865188419,324.44106805076154,87.97652613277727
-1127.051541555985,305.07665716631067,96.06634273681635
-1111.0929828228807,305.0939923419313,112.00358940106969
-1147.935329597773,332.84862822676456,154.52881463088823
-1189.7233000056085,360.35955193669605,165.58457781199496
-1199.461589839548,407.25018227427313,208.4514079731611
-1214.053728847262,446.1931444479002,223.79915669469187
-1189.7844829783871,473.3349308887337,251.54359541739538
-1208.2413464332878,492.9981186235872,270.824389572382
-1183.6457913762601,489.3271402568666,314.3754493124564
-1168.9924693957673,458.121784707316,299.00220768560115
-1129.6416207369489,419.4102981140349,331.119189529554
-1126.3071487205111,365.18484905650763,327.42781683857385
-1084.9474591221265,314.39278448807704,308.59467810108447
-1049.5633065317923,260.2366761330322,340.7045219315465
-1052.5714693600773,245.03066796510535,368.1838344388757
-1059.6482998781441,256.8328634141119,383.7355264030021
-1057.2723611019055,284.4620742047489,446.47254669025614
-1098.65244502455,292.7656233270281,473.2972013888536
-1107.2078640514346,269.4416543875839,453.62381649187034
-1133.9346259935862,227.2315214675756,469.0643593887821
-1144.8149979860607,227.49154910188497,488.52360388103995
-1138.2480255744827,238.72984148511475,453.26283695247616
-1090.78023586036,335.227626151642,469.34682077977703
-1120.1990486047735,420.7828361367032,492.16501047758413
-1165.076759137932,498.71974629460624,514.7782372165827
-1175.192343970673,568.6855348156608,541.8629195494894
-1194.7097122870707,611.2535881264245,525.7279499115397
-1210.6070880473965,599.6634936497175,513.7554618549658
-1188.2039228482715,595.4459473928407,494.48180571347
-1178.4656330143323,548.5553170552636,451.6149755523038
-1206.6709834653018,548.4564045826047,415.8718828550015
-1353.071640162543,572.7643996675727,409.67200828009567
-1473.6224908607935,612.0326513131397,368.48770987034317
-1496.2194021403845,608.4789403109115,383.8599317809854
-1505.070538869033,561.9085008642096,360.33609846379755
-1422.0962306190188,499.012404847731,322.54541561083556
-1316.0763359557036,424.3314485578664,285.13916577016624
-1225.5561277296529,376.7820815467056,239.55989048247875
-1125.8278821004114,348.859192486731,233.29883293479426
-1127.0005557453362,317.67015239658804,205.91435403527203
-1120.1174713077353,336.7143723901638,178.4809287575268
-1159.6314745606298,352.2130391112154,146.43940591333433
-1184.0638750235812,340.4781449322654,110.79114682383893
-1230.4915542004662,352.37313455665293,102.20615602677776
-1285.342089296549,360.28715208557463,73.88588355860566
-1316.932897574605,387.3667358374165,45.848990226020106
-1386.192022760066,403.37730009738294,44.75758796326983
-1425.512279932495,407.33889758480217,20.607444948070953
-1452.5653510627994,415.249855965085,16.25091137136535
-1448.6598379670938,384.33919840108507,24.262923628354233
-1429.1424696506965,341.7711450903214,40.39728143657621
-1403.5883813534695,314.17354550228674,5.551651175477866
-1376.8616194113179,298.45665951165796,2.080435214879699
-1350.756884359083,270.99570189616236,-17.05903647015036
-1332.5855414438163,251.2641931750394,-44.19256320965876
-1313.374087991312,243.3777079838681,-43.87818470119766
-1271.800257988202,242.84541612069364,-66.80140516894149
-1242.1978963254528,242.29986794675045,-101.6777390852126
-1211.37187520713,242.06125435291364,-101.2151958110058
-1165.3724768396955,264.81418221309013,-112.37680553501961
-1149.9849591858588,260.82607210413346,-112.1330933601179
-1134.6586245048004,287.7200675052133,-119.843167646444
-1115.4165795659069,303.01173183503033,-123.53148118878518
-1092.544344908812,306.63376382352794,-131.04984882707146
-1077.2893903626623,302.612003079543,-134.73306378834772
-1092.2996130176973,302.83328149775923,-123.18477767637268
-1076.5551946893181,310.51990231118685,-115.12494072899513
-1068.254704715678,318.3350073674497,-99.32861884537535
-1056.4463909693934,314.4458097311519,-91.28948213712125
-1071.6095710563752,291.4552879933515,-79.66522716727935
-1064.0636710803385,287.4926707897192,-83.46346611737954
-1059.046667312487,280.0334466917857,-48.041482055543945
-1081.969887780231,287.98315428816164,-44.48715922358808
-1119.0365721219787,265.47903718395173,2.129096072563006
-1145.7123482534812,269.624183589707,9.564795317463151
-1156.6946918672534,254.4100176920763,29.074658522533184
-1185.2773373170248,238.7665512687819,-14.471608551340163
-1245.0123130732718,138.3183859931781,-50.349099845512995
-1313.2109333972357,-133.17901627976937,-183.8915429835877
-1247.8063354968315,-437.92834454171407,-456.60750613104375
-1072.1092320007342,-745.7776100911117,-547.1277143570945
-841.6319538272501,-798.946633151994,-665.1598660092897
-676.5174651894379,-644.9001442898442,-600.4119653500431
-692.4801027873943,-356.1481239770972,-342.60017437147246
-903.7979330352364,-34.69043965064523,-60.352821809690376
-1153.574360255541,14.758454722050855,57.402170975817434
-1396.868451509945,-71.32588600592456,167.86262383178763
-1265.100722468937,-146.52302264279854,95.52191625070743
-874.0130421703641,-119.15587891889689,38.49377718181031
-578.0618253939929,-55.98639698571888,7.392208348416636
-471.2567492466847,-18.474300602142424,-30.380711048115312
-564.9676495031433,20.55074872662938,-75.08690531425106
-781.7164883013058,41.287187775642046,-109.80100238103738
-932.2469956611076,65.55735138910842,-123.91081562001295
-1005.9531032513654,54.41399458530691,-136.75108217383104
-1093.655835580958,51.46905416222666,-110.58312471639144
-1195.9027802562548,95.20468253685,-69.09107595356214
-1293.7751423778764,135.17867977341908,-11.8225897732661
-1351.0526020608465,189.82119276205435,-8.940423080256766
-1411.7868997058122,205.97757644047667,13.643089128295596
-1441.90931663718,229.5646321628691,28.810857938235795
-1495.281263224445,253.29648758750443,39.70520004282809
-1521.1616607098247,292.3975057741431,62.73324733726605
-1539.8632560558399,296.5518296258152,78.13769228023841
-1518.744933285067,347.07264968159365,121.45431926294914
-1533.5512126975063,432.3035899109278,120.94548087267314
-1525.3323000209043,447.82163124002597,132.78948468641178
-1463.4355258931441,501.47298006964667,129.6110292505596
-1436.9432986799775,528.1742491064737,110.29454502811869
-1428.3674853288333,536.0576751490061,133.94482315571577
-1408.9418914716036,539.8122702451908,138.14707366939783
-1388.5271728877854,509.0555898293506,177.80281747589646
-1387.7623857280519,462.90425374618246,209.36711313241526
-1406.015305940357,374.48262148644034,256.4871796179124
-1385.8453192476536,250.97969235161855,308.2265605481995
-1362.6977612130545,158.12331428163543,328.5097357405434
-1331.270107529075,107.83091065756402,356.62229201613195
-1287.7384223970469,115.51447232235272,388.64545996849085
-1250.8450898115057,196.9000627125471,436.0184160748064
-1237.7621307989987,258.9844646234953,467.4022219616281
-1208.1699662983794,321.2228436826031,530.4298613695809
-1180.8925576012198,344.26129208241355,534.6851371263378
-1133.4247678870972,344.21234570419057,570.7178292281259
-1077.014066985158,339.5553017595204,532.3326518229977
-1022.2247148618541,362.52135030820926,552.6984240285929
-990.16891599068,420.51974935375495,576.531231358313
-969.7032115962128,494.0474066067414,596.212773985
-956.7538354076062,556.0971381664483,623.6696527356437
-947.8201016657066,594.964641340315,651.1448863781211
-901.742185149873,610.0136132114434,643.9344730361541
-889.3638500405337,590.8205146507728,671.6574977183851
-899.9964309932548,587.2800599593133,698.9818133613416
-957.4441832837922,580.092080374032,709.9203091779559
-1000.4864046335906,564.8075540577058,693.6283032432075
-1040.6000010197165,514.5039335552916,657.8750133837754
-1093.2071604472478,467.919218081608,594.4507043689742
-1146.324177981268,405.75629802226047,519.2965997562878
-1210.9843830461984,366.8612625106433,439.96777696767
-1328.7412113208895,351.7653836937181,379.3854170384382
-1517.4193022081956,353.2582482295178,380.4785528187506
-1695.635104750348,393.00576649518445,342.3534030479318
-1799.6563556362264,416.98745239199934,336.7898313899242
-1788.306914185782,385.9483105851642,337.0641350512153
-1616.8416329735437,341.64368056369915,292.6871051786288
-1452.585745387059,270.48686350588633,267.915139216756
-1323.0919835009918,226.61153401008502,234.68054840337936
-1266.5487194913658,221.98916041665606,200.22229813442922
-1256.2903743888078,209.9850611574799,165.09409431355255
-1287.4732961816728,217.85829003788248,152.8269082714281
-1337.8676714270418,233.61800410945636,140.2446299194934
-1393.676739763324,241.29238832832826,84.43851876022904
-1486.0528314969945,276.79074913451586,79.01046738692622
-1590.2780256254687,308.4417206691378,65.56846629582988
-1636.3080154792924,378.3677402578863,56.7939102547761
-1674.3842188718884,425.12376805535024,59.990516639219315
-1655.4990746075368,448.05106738794603,44.49756032896045
-1571.2603182534301,466.56911381562514,26.07363370773914
-1505.896509001545,466.02866422274684,23.13012088735705
-1468.421938174606,430.70773403761734,0.26281961730050535
-1454.6659664615338,406.99933208588055,-42.62209827005145
-1424.4109864224788,364.1376005057793,-49.873504203780094
-1409.9514105224519,325.15996798091095,-69.14848597635279
-1392.0247994982997,289.91857566039374,-100.1579540413903
-1373.5475417191399,293.4335374465287,-123.44072644583014
-1366.083219040141,277.8655300229946,-127.20143983929273
-1323.8873621471148,308.3846165612111,-138.44585051980036
-1315.739829605421,292.9869017452443,-122.5739676647989
-1293.8465225127848,292.5015168278668,-157.5655295131365
-1240.0360979539396,311.35912875446763,-164.6719318013797
-1190.2943410848764,299.2979253873647,-171.73550600867782
-1159.1420107784006,287.55691291113686,-159.4560833719976
-1128.2038208766503,283.484166356503,-155.05396848057185
-1085.8754008759363,275.4192308280606,-154.3921726583492
-1032.2179337490377,271.0650425986448,-161.423115946832
-1024.4374990440162,263.3029627854569,-157.35648768947604
-1000.6852492951214,236.2488719389394,-133.36154548189242
-965.5407300148369,243.82026482030054,-121.08620171006409
-938.6487740461831,232.00583277673826,-120.6436448736317
-896.0419715193262,243.3195841597284,-116.11916403664863
-879.6734868686045,243.43991067285978,-88.40205370845295
-841.0853859370937,250.87976016274675,-87.84916357777631
-827.6975317769065,258.9722280289396,-36.65584067953889
-800.4782469038868,254.96372359572334,-28.3853303625601
-791.4619161487359,247.50857836264174,11.021092829865449
-794.1162374511175,263.2866473260492,42.32505493721098
-797.2600225357285,267.3563347320441,61.887290766979554
-805.130192267492,244.20367811638025,61.847521834673415
-796.9316739151495,217.23422371553997,81.68446921221825
-766.9489581049595,154.9938052240062,70.56966446238013
-748.8245221354898,69.59644730871399,55.43075362126721
-688.2034129901649,-19.962882329847606,44.86700351292236
-639.2529559023725,-105.59875186735533,30.190737917637524
-566.2545313639215,-137.11410114565118,31.39043404220606
-561.3660118389053,-67.3694890711915,46.92693223475907
-610.399065939949,25.9693167391515,57.651389618269235
-720.7609122381242,146.89929792538737,71.28876833577216
-846.15541494802,244.87363166830676,100.47692127280979
-926.124619518388,322.97471613649924,110.78910739141298
-963.0791350767083,373.8738509072926,145.38603906532813
-939.6307607592807,362.1919819714174,157.55023376994185
-849.8814579902415,288.4124548138253,206.238623790999
-763.1862052790709,186.833424258029,172.558416992551
-677.8910229283192,143.82791269189786,197.5292276159545
-654.7424451775072,128.20891945771496,201.8528243589809
-639.4375245369215,131.92374562159353,198.1451362085932
-647.0629623775703,143.58929909806105,197.99217877664648
-666.5487194913655,151.40746330296278,189.82425191069328
-693.1959435689049,159.42141302075635,197.2477859411726
-743.044770640331,156.0084228559192,204.36132624290664
-809.3722117134802,156.3092391387477,179.81879642895385
-886.769691994718,187.7164984984679,162.855817226066
-990.9775509475714,223.23627334512807,149.40066179582223
-1072.0684433522154,277.8859243472542,132.30308005282131
-1192.2318018895344,352.00705643619386,94.93160253501452
-1318.7174009473165,411.088394099922,100.68698281268324
-1406.749501613701,458.2655646933459,107.05796576812673
-1521.83467341039,474.7360209653654,117.05322408773638
-1636.7260991266132,479.66838828753964,134.9380267471563
-1689.8533138227633,460.98004925229316,161.6780450000765
-1742.0627839272333,457.9729061402212,211.92558111077687
-1798.850779827974,447.08641585046894,242.50890977041092
-1812.300836677153,474.73194210051344,293.23469278499795
-1798.0146125333322,513.9451290705797,363.95915016850813
-1755.8799386130843,599.5125756501966,450.64318600133583
-1661.6275690475345,715.0994478236707,479.13711614057814
-1486.8788016295068,743.9961658670393,403.1651991250835
-1300.0463970876906,629.0496754753153,261.1411644139436
-1253.924632774699,469.3264264555175,179.95339896906694
-1287.3407330739856,295.13034522492393,140.7942569582885
-1317.0450663580327,202.9632953149139,191.6801354183131
-1317.5957131130408,144.8986147155247,187.94389521396198
-1304.6147257218317,133.5797647514697,231.34709610315454
-1232.0823114927116,94.22412342645043,220.79201358262
-1201.3276705092974,43.761121279947794,229.27197360974444
-1162.1093849581662,-14.293668072175514,261.4521778589019
-1141.888412454814,-33.51246348141313,293.21735760937736
-1095.083438279127,-10.554572662428047,305.615067326763
-1050.868543284404,93.8472363141338,337.3221232530987
-1008.3443377707985,248.0296533474734,309.9661964075398
-944.9740737152852,394.73622490860794,330.04338892486226
-924.4818566992807,491.4420316825828,345.72254541561085
-876.7418027562929,568.6987911264296,373.6495133404374
-826.293382551636,618.6057420219953,374.2368698791127
-801.4276026981693,634.3124308504944,421.6516343501604
-753.3051551753149,669.1836661857006,469.35089964462895
-717.2867391005084,646.0799559482597,513.1385335461141
-713.1334349650493,649.9875084763911,521.0372553318413
-719.0131186490801,638.9195087007287,575.9316382250821
-741.9699897518522,623.6920864923292,583.4877353632485
-806.470099371345,612.8647397429296,613.954816374603
-880.39442623118,609.3905666053138,593.2362223593175
-1020.7257320287765,575.3014536054617,552.002977571342
-1229.9307102833284,592.0757853089486,513.4913553558046
-1511.7292857397788,621.1580917030791,489.5494383912958
-1740.747350012492,657.2529864938589,431.0523981176039
-1842.0561557718488,673.1931903351299,394.15906553206247
-1786.9710859467812,556.2062478012369,340.43429713510733
-1573.6566513539283,453.50858855980385,292.956310258855
-1416.640748879587,346.77693197983007,177.92926228630574
-1319.8288916194624,252.47051745499232,101.20530456373992
-1302.6058847822653,213.19002921486953,50.57578275965799
-1315.3931260930085,174.35209781117916,23.04293515114744
-1309.3258146257897,154.5726624280463,-19.970224286581047
-1328.812591455798,123.77213421504796,-20.15815798463288
-1364.0335894520556,104.59331168135908,-32.39495648361062
-1414.784865371967,89.36854073511343,-48.80229232204678
-1459.6319844187365,113.24560374847681,-14.233096929124628
-1482.8101339397247,144.30615959578452,-22.534300704114045
-1495.9032901143614,202.9347432609505,32.01643782535321
-1501.8686299602823,257.4977183849735,70.98927768402055
-1497.2799070018814,284.686411771604,86.66476319640245
-1496.6272886255756,319.6076132012461,98.33062258773384
-1500.12491523609,312.0025696848567,110.0773454747544
-1512.3411154675655,315.78979569985677,90.25885496066445
-1496.984189300118,307.9328822788618,90.51541555984971
-1525.3424971830343,303.93049614292346,50.85783626416769
-1498.6973125379209,276.6072002161799,47.4245537466923
-1484.6252287988254,280.0140720837391,8.377743673935544
-1458.4083249631628,268.02934743260954,-10.812356921068869
-1420.8827683255752,259.75435036429366,-37.694625585699505
-1364.7473908011402,255.02898543335394,-83.93324937669847
-1330.6888692876773,243.0177481606869,-99.0811337204856
-1273.7071273064707,280.9858616347071,-129.7527698041635
-1216.4296676235006,303.5807334818721,-148.5940662713567
-1174.1726277576952,322.5280804352149,-155.8738203158061
-1127.928497499146,322.17117976067266,-155.18041329098114
-1096.888335976098,333.5736464541919,-150.82928421020432
-1058.7101609622043,340.910504606568,-162.05533999887834
-1019.8997618962643,340.68208817486095,-153.62432634997683
-970.3242187699165,344.02675735342854,-168.59172092406683
-939.0872520177636,343.8911350971025,-156.34900807105385
-912.1126990358584,343.683112989655,-155.9441807345016
-880.8216873244177,331.97575114845546,-139.7378309616434
-848.4385595488776,320.5416732523339,-92.1189193047575
-821.1366776626066,308.8302325462824,-79.89660077600405
-784.8470170751481,285.79484329511104,-28.255214573784116
-750.4377131844209,266.1489907358783,-31.59815023478966
-704.8227478292793,215.43034573478204,-38.59299556933306
-639.367164118226,168.56826745116837,-29.605216868145597
-596.5696746595423,129.72421775020013,-9.210005455481742
-551.2810184925536,90.50899134770795,-28.022413362361256
-519.7707677953226,51.82309963137259,0.0524051536457404
-507.1201684571185,32.69811811372895,35.62796673685714
-494.65923633452815,44.42026584001673,59.32280646296137
-490.2061356324536,52.26473872321334,75.0615143805479
-551.4533505325469,72.15287585464966,81.92624392631531
-577.7192007464323,115.01990995905841,93.16208899063392
-600.2957177017637,153.9536946867687,100.54177522395518
-649.2726874110936,197.10196652271674,123.21027058169713
-718.2819821243748,247.93074087481455,122.00496601795723
-798.3602963295316,291.248285602117,136.35849143183455
-883.2190401411287,318.9162456088471,127.14433573136598
-971.357191293663,331.3088567451679,137.5566579820836
-1025.8549045800555,312.2789127785737,125.03046402186273
-998.112505289778,285.2299205131212,153.00943747355112
-963.8388236553769,226.9307051847471,153.71915995778377
-913.9063798544867,164.71272044989882,162.52644888927412
-841.2628165581519,140.8330061743817,151.9214002743037
-810.5989303176926,117.38259242452827,152.45981043475604
-784.4972544140967,128.54032722693276,125.34045775060802
-799.8286876762198,120.95669775101591,129.0614022117645
-834.700942727639,132.76195234866137,120.64976317090955
-904.3638755334391,129.36017906216702,111.76905467208476
-958.012165214421,133.7143672915828,118.7999979605676
-1031.8508359123657,141.84558437386877,98.04296064405277
-1124.2575191324256,173.47616158423114,92.6274517801696
-1235.9266416156386,205.2545976454753,86.92295534152846
-1358.75145946883,256.53408656370937,88.83482126924078
-1442.929032850158,303.6816853869568,95.26413199206662
-1519.254791391556,350.8037913048799,105.73539383989437
-1557.5247408646176,389.78856184323905,105.03076993672663
-1580.2644124140254,386.20120020598273,116.47606471119089
-1576.2977163455412,382.33749547500935,120.47335226606437
-1552.7932576364,378.39221344699774,132.61205406535365
-1532.8170170241624,362.97410430677144,156.51114294891735
-1501.5219264478696,351.2667424655719,172.71851243798852
-1465.2608179143747,362.9812423202623,216.3929578398332
-1433.2111373404782,363.0505830227448,252.19417436127532
-1405.3320960776616,374.6539338102207,276.1207955825894
-1381.0934416951766,378.61757073006584,307.86660072501826
-1343.3843361392526,358.8055044281177,288.8754059745173
-1301.8105061361425,358.2732125649432,265.9521855067735
-1280.488240122774,353.78136264677545,215.26719114070556
-1246.8681965808917,337.79935044077234,188.35178169915315
-1240.2502383586648,298.8472108212285,165.03495077319985
-1200.27736280993,310.4974685545013,204.84059286300624
-1175.3962872132686,340.6576149857495,138.3928252767255
-1166.3616015662842,356.3806192736562,173.79737219131917
-1139.0841928691248,360.1097214645165,182.04177777324574
-1089.8318997822907,336.3401365400009,163.23719108971974
-1069.9678279534808,324.7561603605717,183.19711624254973
-1055.120759892522,320.63140827907597,167.73413958895242
-1036.133644006873,320.41420872571166,160.17090443729512
-1007.6560293270384,359.20115431875314,195.7875523241882
-995.7426848108173,390.0954964233454,199.78687931148764
-975.848021495618,401.68966976490447,215.74339861216626
-962.5702966864324,452.2359827260074,255.01878827122414
-950.8741517235754,452.1809180505066,259.11804744739544
-942.5400111149067,444.5544604936447,278.8923842494634
-953.3632789994546,433.2427485430805,302.3162853777794
-957.2443189060485,429.40453671743165,302.2703981481954
-991.1070549066196,429.8776850402533,325.3098662642187
-1031.8304415881062,453.7930893832247,367.79022398066627
-1079.7163149495498,477.9052989553008,425.86000316112035
-1135.9434669331526,490.33461987528875,468.147634513315
-1173.7341497861148,498.5402762411221,487.1765587636961
-1209.2610626462658,475.4243294091255,467.0993662463737
-1337.4393906175912,468.4300959043099,437.7305195963964
-1427.184614521779,503.5909306440018,397.02140894189154
-1450.4953271504544,553.9261623490183,380.80384229069057
-1493.782280391367,561.751464567411,352.6566156638608
-1491.294172831701,542.0699219407239,317.4386768162421
-1415.9677361790216,506.2799222976246,275.51712358450646
-1302.4121387017994,427.6363488041278,234.31243085049437
-1162.5070742812277,356.35104750347983,173.85447629924596
-1059.4137651491592,278.07049298180317,163.88878974981264
-987.4513722830937,234.71012017355574,137.64129442776078
-954.3238516720797,226.32805290287718,94.99462099697655
-962.4132603896337,230.15402813397034,83.0866809766842
-966.7572514569197,237.78456455568417,67.29739513493396
-994.5231042200958,241.65642701636136,43.32070584756263
-1066.9800594494552,273.30841826719626,57.82718869338664
-1124.6654056176167,308.5385937093707,52.91949850356646
-1204.254256040544,382.8748859192487,75.0242947387742
-1272.718002579882,414.5309560349355,93.51511474356688
-1305.9811454472222,442.1876991633229,128.24460952516915
-1312.9560043439913,469.4651078604825,143.7473551110726
-1281.14085849908,473.3349308887337,171.68248076560295
-1282.017814442241,484.7017075147987,144.1593204611157
-1293.0103552181429,469.487541617168,163.6685310478094
-1305.1959639632291,457.8342247352562,147.82723967919728
-1299.2306241173083,441.8889223129204,100.87491651073508
-1308.815956519301,387.41058363457455,57.74428576527153
-1313.6290170445568,387.2005220947011,30.20062916490341
-1337.8370799406528,367.7963422779441,2.43106463471216
-1331.0559671243495,352.0560028144168,-20.96200027532338
-1324.4991918749013,343.98596870490945,-52.233433435474915
-1313.374087991312,320.6161125358813,-59.837253292408725
-1303.1973201857925,297.00662305680333,-94.92680986881352
-1296.752713719772,273.46035598292997,-126.14807299128654
-1282.0688002528898,246.1238037454177,-141.5345709289105
-1232.6329582477197,230.12547608000696,-156.4377233815829
-1202.4799498299624,210.40722366965278,-171.61823864418534
-1182.911595702916,194.88612319191571,-159.49891145294265
-1147.9659210841623,194.68625881417202,-151.1260216281809
-1132.415248836249,175.29227615954483,-142.97848908648723
-1085.9467810108447,186.5754360561456,-138.39588442536444
-1073.9855098326136,186.5886923669143,-126.44277097683717
-1057.8332050190434,175.06895830890264,-102.61404251196893
-1049.6346866667009,206.02754253491253,-94.74632009911642
-1029.4443056497378,221.5588401747794,-70.94848903550142
-1030.7801338887389,229.94192716167095,-0.3537630077549418
-1046.6877068111946,237.66117889391384,-16.316479123859832
-1057.9759652888602,257.1285811158755,-12.626636007199199
-1065.8175829666604,237.8447278122499,-12.679049420546264
-1065.0018099962783,257.35903698000845,6.890426394334457
-1083.85636277424,175.51661372639998,-75.53282721418631
-1115.834663213228,-72.69434516374093,-169.3656855297171
-1075.9433649615312,-414.4911871026294,-281.4284184711395
-992.2705511056274,-752.4037260430423,-353.6029123095043
-876.1085589880337,-951.1107258849862,-406.1376718859142
-946.228324657248,-755.6770150867014,-246.93753728337407
-1071.3036561924819,-374.7089984857215,-155.90543151840845
-1190.8347906777547,-106.33600668933836,-103.65721219784534
-1303.0035741053266,-23.482126924077033,-23.19956356146085
-1372.9968949641316,3.9293540607648896,-47.888116737112064
-1324.8051067387946,22.373083570842237,-106.09739309550153
-1152.1161660709827,74.92252706071902,-135.0848658818251
-981.7440206390563,151.0556612094854,-124.94072899512066
-833.1591318136165,223.84198477563694,-75.8653566712384
-808.130197366073,224.14178134225247,-20.54677183339877
-821.6353188907527,244.04868125200758,30.20389225678494
-846.2910372043461,225.52961510811542,100.54014367801442
-899.5294009677108,191.3670825409289,127.32992408212796
-964.1376005057793,165.0655422595892,157.8479909041314
-1056.1812647540191,131.13244584032265,176.206961602586
-1167.993147507049,124.25751913242546,174.55502133756178
-1234.3970672961716,132.2612716880892,146.06109119831953
-1242.055136055636,140.05802185251846,145.92037036092856
-1246.8885909051512,174.59886913471982,110.40977296018521
-1257.850540194664,221.18154517597753,117.93833776060123
-1280.9369152564843,263.84749124318705,109.59909857086774
-1291.8172872489588,302.7262112953965,121.07804398036028
-1306.4400177430623,337.80037015698537,136.44006872887277
-1315.0566197427258,345.3585067275778,108.81289737066177
-1308.112352332346,352.83098713628004,85.34392478573214
-1338.6324585867753,357.0067250284246,92.72177552987006
-1343.4965049226803,310.44036444657456,73.18289120137867
-1367.245695522936,279.5664166662418,61.15747987335126
-1366.8684005241344,275.80060469171434,72.9497840750919
-1389.659057884191,283.7849826393315,80.43062615674059
-1361.7800166213744,334.00702584470747,96.37725421015332
-1342.1912681700685,360.9734210969088,100.5043516389389
-1314.39380420429,380.2797081572199,120.47845084712925
-1293.9892827826018,368.83237395032967,156.14506482845826
-1265.4066373328303,345.856128239511,207.67030535402
-1272.4834678508971,280.4209388527173,239.18157576746393
-1263.897457337623,249.6856724773496,270.8111332616133
-1223.9245817888882,261.3359302106224,310.61677535141973
-1187.9591909571568,288.42265197595515,342.4614929665075
-1149.5872698627973,303.5317871036491,335.13585169247403
-1110.1548439069409,334.3547490733329,355.2456751286117
-1055.7121952960492,345.6470864158505,367.7963422779441
-1025.18189187949,360.78171444886897,356.4295656518791
-971.3204815099958,387.37795271575925,349.2966507420985
-947.9281915842821,425.88651578265774,349.51792916031474
-908.985229410655,445.001096194929,357.8857204040116
-893.2989349064156,464.2594565932302,361.979880999118
-896.5242972880649,456.72273406311024,381.58086604497976
-907.3220722672881,468.5891716335345,401.0013613211444
-883.7645883150719,472.3825159458123,413.1155899313222
-888.5725502592629,452.86310819698883,389.562184843958
-879.7203938144015,460.8148552257907,421.0642778114851
-933.4502607924215,472.87197972804177,424.1438207746785
-966.6603784166867,508.26632948050565,458.84884236716925
-989.5081398846703,527.8224470129963,462.3648238695172
-1022.8569389139003,543.8727802052689,497.1330678672126
-1046.6571153248053,543.8799182187598,477.15274839012307
-1125.0834892649377,524.8234616306282,440.72134724906067
-1225.8518454314165,521.5919809517012,423.52383331718784
-1403.2722693274463,538.3673323714012,412.9605930669495
-1530.4410782479238,577.968011502399,403.0734246659155
-1569.5471950156273,574.2603233520113,386.8007933392137
-1582.3854221370193,546.9951512494073,355.3037989527515
-1537.456725793212,476.7958477155808,332.6660990246415
-1455.1350359195037,398.2878964784101,279.21971315382933
-1375.6277627936147,312.34519433241735,257.152034588774
-1307.8982119276207,253.47085905992367,223.04354698087525
-1243.7274706449195,217.87358578107717,192.72840368525442
-1230.0224847424963,205.7379431304268,145.87856199619648
-1238.9348044439234,228.66728189544853,106.4216628512285
-1238.6900725528087,244.17614577862986,110.29760417675762
-1282.1707718741875,244.23019073791767,78.2495551488021
-1340.0498641228148,271.6891089209873,69.44063467137097
-1405.0669698622876,322.52298185415003,72.21987120984231
-1451.3416916072258,376.9391178435042,59.569373843259434
-1477.4974124701098,415.9718150438734,74.74438263831176
-1465.9134362906805,419.75088332916954,74.90519188509839
-1450.9032136356454,419.52960491095337,63.35680380150205
-1416.6611432038464,376.670932479491,60.08973502674206
-1378.748094405327,345.32179694391056,48.989410247128234
-1329.6079701019207,325.38532526397904,26.245048003140727
-1322.612716880892,301.97671987885775,10.730371737545443
-1307.694268685025,290.1490315245268,-0.7800349762661052
-1303.9723045076555,270.7754431941591,-0.6589926223531992
-1285.1381460539533,266.6557896937283,-12.1368663101059
-1277.7859921583824,254.92191523099123,-19.836437519438345
-1255.3726297971275,270.0126954668516,-43.099325457725115
-1227.7995033982045,258.36957574706963,-23.02386645796475
-1202.4391611814433,261.61941131783027,-69.75042445687366
-1163.4350160350375,269.162252145228,-57.417772633876
-1126.2459657477325,272.39067367551615,-96.11773643395044
-1107.187469727175,260.6017345372783,-99.71723269414123
-1077.1874187413644,279.46750419358295,-126.80375051623135
-1058.302274477013,263.7761111082786,-134.3170195734527
-1031.6264983455105,259.62994498631036,-141.7527901984878
-1027.0377753871098,248.19994595504073,-118.0974134898258
-1038.4280054860733,271.50148113779943,-118.3472439620054
-1022.2247148618541,248.4089877787012,-90.55406280432157
-971.638632968445,240.42155068244512,-74.07096205126115
-967.2395772256582,221.21927467585775,-54.31712154507401
-943.9829095562707,221.07549468982788,-50.04369483972611
-947.4540235452474,217.33925448547672,-38.3092085472613
-935.6752815691395,209.58023382092767,-30.25742735796628
-920.0154996864375,186.35211820550344,-18.1706291139176
-901.1303554220862,189.96905161293614,-29.673741797657712
-911.9546430228469,197.96668587132203,-10.23978626748176
-942.2912003589402,209.91368102257144,1.0393559472398832
-965.2756037994627,190.81745550213378,8.608739987661435
-962.0757343231379,136.55631637715226,0.9904829885842771
-893.8016549994138,19.89099233683266,-5.442500752040708
-780.5397357915293,-139.9274981772573,-38.52834556143026
-609.3130681731275,-276.9793966339168,-70.82275802644125
-515.7377901729949,-335.34795266477346,-26.05334135510088
-531.7901627976935,-206.95038570765757,39.99153635543229
-725.2384861293103,0.020345071966471732,83.49110042675125
-987.0149337439391,219.37154889794172,153.39794935069574
-1219.3766474790068,372.4778594117257,196.49625509220786
-1292.6534545436007,423.2342339127021,183.4530650120072
-1212.0244935834357,341.4346387400387,192.78652750939415
-1047.738014510562,216.21858636741396,179.97073414468755
-890.5671151718478,118.24629205692057,178.7317789459194
-810.7060005200553,24.66958645408983,168.4693549785095
-791.3833980003366,12.948866330500222,172.72259130284044
-818.9860961694362,40.032936833679194,148.67054498733003
-872.5528085533797,75.30226937843199,151.67360923455004
-929.1021908602837,137.85339540006018,174.16345031177823
-995.1563479883549,157.53187887810824,153.48462522879882
-1056.507573942172,161.94521064787673,160.39932086900217
-1109.8285347187878,154.79496056247547,179.2477553496862
-1133.526739508395,170.27731182411938,159.21848949437373
-1141.337765699806,174.17160804148207,155.16307811536052
-1166.1270668372993,170.0713291490978,107.71058414443263
-1151.534927829585,150.4377131844208,88.3720740517914
-1129.8557611416743,157.61957447242435,45.50167488387982
-1115.2024391611817,145.72356513182382,26.138181744020642
-1127.5002166896954,137.90438121070906,6.357247378054688
-1127.3370620956189,141.8078548739886,10.271193526841481
-1139.5838538134838,161.0356237859004,-13.524802047590157
-1173.0611370855493,196.3606328358818,13.326773159029845
-1187.3269669051106,223.80017641090487,40.492828845732234
-1243.992596860294,251.56704889029385,67.0228875304003
-1265.9062982771898,286.80334262974617,94.04791646484784
-1302.616081944395,333.9019950747707,136.51042914756826
-1320.440721347249,365.30823471827796,171.45916291496079
-1350.9200389531595,415.8402716523992,170.83203744397935
-1377.371477517807,450.9358445544606,178.16583644771663
-1374.2511459060945,462.30670004537745,154.62670738733414
-1394.4517240851872,466.0847486144607,126.83944058368557
-1390.1077330179014,477.7635584016969,138.63857688405318
-1403.8025217581949,509.2085472612972,181.49826903172848
-1414.8766398311352,540.3160100544019,189.07679992658043
-1415.5598496938303,583.6202984709356,271.3373068275099
-1423.1669326426456,584.7011976566922,385.033625142123
-1378.299419271617,588.8585806570032,456.3352419021787
-1278.081709860146,553.3347269454911,465.8053463721047
-1167.7790071023235,521.2136662366864,432.24444637057513
-1106.2289364869757,505.2632652332856,433.220314786395
-1104.6789678432494,532.6864933489011,472.396791972794
-1122.248678192859,579.6015968755896,511.2214670657157
-1112.9080776819812,618.5710716707541,550.4764624005139
-1123.217408595188,661.4562567237539,577.6498600439498
-1126.500894800977,704.1099661964076,585.3058893709881
-1114.7537640274713,731.1018543539334,585.3905258166652
-1075.7496188810655,738.644695181331,597.7239934126334
-1045.8515395165525,722.7269250967456,574.6773872831192
-1023.6013317493743,695.2955392514265,555.4802098575967
-1009.713816644828,652.3124614419808,520.5110817659446
-1044.0058531710627,605.3392340911525,429.88992163480907
-1087.7006928971668,632.3719108971974,385.97380349048865
-1176.303834642819,675.5436362060439,376.6515578714444
-1245.9708463134712,710.7605553374497,359.79055028985437
-1312.0178654280517,691.8203463975976,347.09100457342726
-1359.7099927090292,622.3011935778273,319.1395634594893
-1384.6012654678204,525.4883166014898,287.69559431610185
-1367.8371309264633,497.6765766087298,221.3222660133685
-1310.284347865989,462.4117308153141,222.30323301025328
-1272.860762849699,438.6625402150582,195.47144029816505
-1235.8552614807302,434.1197044862415,152.87075606858613
-1233.3365624346748,398.99863867885574,121.62971045158133
-1223.1699917912847,394.6984954087278,82.55031024865781
-1250.875681297895,386.9975985683185,62.53817562572337
-1296.9056711517185,398.9955795302168,65.73284454936193
-1343.9859687049095,414.5880601428623,37.502613022795764
