acc_x[mg],acc_y[mg],acc_z[mg]
315.3533571607022,858.2125394502712,480.7961944190932
302.0664549055998,870.4501537222192,539.4247780842593
313.653490233668,912.8489341416285,531.6066138793575
310.0997792314399,916.8156302101127,539.389088016805
317.9159040039157,893.6119877837998,547.4336292209879
313.7095746253818,824.0387900047418,551.5298292485202
303.3604747798688,699.8546904396507,500.77345474754384
275.51712358450646,537.6453732926127,508.7527341140961
234.11256647275064,445.53338805810347,555.5393533979494
235.01195617259717,476.6541071619769,575.0709977413287
220.87563031208416,639.2937445508916,578.2351771501992
245.11122554593058,797.7331708585501,578.0628451102059
269.7027017381063,909.9182697455299,597.6760667506234
262.1047962352078,925.4526265340357,597.509853007908
242.12855562297017,902.2520432563618,581.5910632071095
264.4868533087242,870.9875441664586,566.3320297961078
260.19690720072606,847.7359750781358,558.4975501317983
268.3954255530686,820.7665206772957,578.3340896228581
256.04462278148,805.2107498483173,558.5791274288366
268.3138482560304,789.8517842484438,582.3619686641209
274.93078676204414,789.5183370468,551.0648386554022
291.13509710247644,805.0455558218149,570.8789443897764
282.7183594805566,820.3739299352992,547.153207262419
267.33186154293264,805.0526938353057,550.8986249126868
278.21121381919414,785.4833199920463,535.4295299618117
263.09698011043525,789.5387313710595,543.038652343053
258.9712083127266,770.1906359460163,539.1178435041529
255.33693972967328,743.2425955856486,550.9281966828632
273.94981976515936,727.4818617978617,535.5610733532859
281.1938837421546,719.5821202959218,523.9230522145688
285.8917163353439,742.9356610055422,543.5372935711993
282.52869226494266,754.6746340493441,555.2212019395004
274.52086084442703,789.4153457092892,539.2860966792942
290.61606155007064,808.7766974451011,555.1600189667216
298.2404796745066,855.0391825954838,543.3445672069463
290.50593219906904,889.8492349579113,535.2612767866702
280.6717890411099,877.7890513070213,476.28598960909187
277.58306863199977,850.9776529191927,503.8020119000883
278.07457184665515,804.7579958497552,527.513473000464
307.648381455441,781.0342981548235,496.6395252201313
315.35539659312815,761.6647886893079,500.74490269358046
329.5702406020405,726.4886582064212,473.6041359689599
325.7993300464481,699.5049277785993,481.48756201149223
346.3476314541664,707.4016101319004,517.0909535876166
377.8293300974339,722.7758714749685,533.2085880499458
392.889518846905,710.9818337556659,525.6249585740289
397.506793859269,703.4196183202215,549.2670789719222
385.727032166948,730.4879851937206,537.2252502128658
348.2545007724351,804.4276077967503,552.1131069223436
360.7144131788124,854.7689577990446,567.8289731967594
360.6583287870986,904.9593898018182,555.8850371941489
376.91770380303166,908.9148689919597,579.6627798483682
358.7157694013756,828.2308433562941,626.7573534285409
343.9227462997048,748.401339907104,772.0159279672469
390.300459382154,728.7687436586399,780.6264116696325
414.60233616984397,735.6140985963608,702.474341390791
442.23766525775886,784.7807355213045,600.6832098626953
466.2937904381211,795.4255530685812,514.6660684331551
444.3821284536514,767.8779195749823,443.7876339014853
383.5458591873882,749.2497437963016,470.41140450612596
340.9849438901154,750.5305073598018,575.7338132797643
368.5346168161401,657.7801797759683,611.7807814085342
403.3528269082715,599.6186261363464,628.1971927212658
390.3657212197846,596.4850382138652,698.6565238894016
409.3059301596366,607.8395782453744,687.1276123854732
388.15497647004844,688.6153783402079,615.8953363278999
400.3946301744225,823.8633988161096,607.7732966915307
337.310906374756,936.9723605920474,653.5422391948322
365.2378742995825,1014.2413566304499,665.4739386028868
403.7994626095558,998.5030565993484,670.0290109262593
441.20061386916024,830.8627309019902,561.2660796500335
363.87145457419206,633.4395537721853,482.2809012251891
323.21231001412315,525.070232954169,442.79137116140583
277.1894581737903,479.1401752892171,457.9555709646006
275.18979468014055,510.5300994733166,504.91452228844724
301.79826954158665,638.6686585123362,579.448639443643
316.68204738621245,820.9225372578812,637.9263051092881
299.977056385208,895.0905762926178,696.2948611401448
273.54805157724604,876.1258941636544,715.5868721734741
250.15780108395836,760.3799462609556,731.3251722045756
220.05169961199803,547.3979391535337,684.4967445559902
199.86029887882205,396.7001983348035,688.6276149347638
196.4717819030964,327.3329832307669,716.2833383469381
176.46902866932135,300.26359664105485,700.3767851406955
184.4462686034477,377.51015892277184,692.3862888958005
136.61342048507902,447.9786675368245,742.4523155205907
105.12152467968167,514.6986993519704,820.2474851248899
126.97812198865059,592.4377845645557,879.1819836539491
145.69909194271236,630.770956442822,855.7856148633837
160.15764812652642,669.0317284699669,820.5513605563573
192.7100487934208,733.8816007505112,746.2527978463595
210.66725130396213,818.3661087119456,691.292133399275
184.95510699372366,856.5136922394499,608.3606532302061
129.31633126500896,810.1635114947511,568.4377437759072
106.08923536579772,698.3200175391189,588.0897146324179
67.80205268873674,598.2705613027895,615.3263346810584
64.93144957758257,544.4795113519908,654.7108339749049
49.51843901842118,505.98012573100914,662.4596574773241
22.981242320262275,471.5412500701056,681.8006148888766
19.8891568476493,579.8952751449272,681.3896692550464
5.127428836554787,692.173168207288,676.8651884180633
-17.1495872698628,773.6627696512062,684.1051735302066
-18.104449531695334,792.7324825501064,652.6295931842169
-52.18428311400938,723.637531674935,683.7492925718773
-63.33233061239058,569.3534489351614,727.2738396904142
-55.13238465734987,465.146609698521,763.0699576307915
-71.96494215659783,495.80539735791535,715.6184833760766
-104.43933453319943,616.3450311778232,753.9720495786023
-142.9213849785605,720.9271259808396,733.4196693060322
-128.1089872688431,751.5532827214187,709.9906695966513
-86.15602677774777,708.6354667496037,706.8387267823366
-74.59366858203363,611.9990006781114,726.96078681303
-67.02186781418732,553.9771481596673,735.1195362330665
-53.76168212386493,518.5603646505178,680.4933387038387
-62.53256718655199,541.5243737667807,644.9623469788359
-60.97953939418661,607.5662943002964,676.1595447986826
-70.63217306623567,666.0633345739882,718.9886454599686
-77.6857540546466,720.353025752933,726.5488214629869
-100.86176217158766,751.4125618840277,718.2483314893466
-105.07053886903275,778.387114865933,702.3958232423918
-97.00866248922927,770.6923363228015,714.3163057721036
-52.21181545175978,739.0780745718467,679.7723993412634
-56.30995294009678,704.2894362498918,679.8284837329771
-68.96034833505837,665.4861751974425,656.2220534025381
-71.5874432145534,704.4423936818384,683.5239352888092
-94.43591848388596,723.9985112143291,687.0399167911571
-64.91900903978424,808.3943038652344,632.252604100279
-57.759071650359715,885.4348834719298,600.7025844707418
-69.12911136830621,912.6052219667268,600.4405174040065
-81.72556377560126,900.8489137473043,572.8194643430734
-93.17636501761561,877.7941498880862,580.5754258589835
-111.95158387420781,831.7233713857435,603.9972875548735
-108.42540520973016,843.1972182141711,592.236900470599
-106.50731901311867,800.2019038101697,545.3156786466327
-81.63276960022027,772.4329918983548,490.83733996828687
-88.33118343165098,799.7787215817839,514.1919003941205
-167.5363146436347,812.4201434740713,560.0587356538676
-209.97894286020204,824.3202316795237,555.4577761009112
-200.35486124211633,839.1927926458068,496.68337301728934
-230.910657564,878.1173999276002,496.0939770461881
-207.10742200445617,839.4915694962093,524.052556173617
-164.3109522619855,877.8859243472543,528.4893414162839
-135.15624601673358,916.8431625478631,583.739605267854
-120.17865428051374,893.4437346086585,576.1937052918173
-105.41826209765824,858.4032263820981,564.7586076794828
-118.47776763726655,819.4979937083511,529.3724156567228
-111.83431650971535,842.3426960276956,494.0739192282788
-126.89450525918639,854.1357140307854,501.6575487041957
-106.97332932244957,908.2184028184957,509.62255204376635
-95.03214655361414,942.9815482351264,513.608622720297
-79.53633503795895,935.1593051653726,517.7925183421455
-97.76631163547185,889.2251686355687,556.9200491503216
-83.85197799452413,869.4202403471114,517.949554638944
-64.88454263178558,865.3342374817089,510.39753636562943
-55.62419378686913,912.0076682659217,545.7011313751383
-48.845018431370555,934.8870409365076,514.3285423666595
-43.53759948606304,922.6392295024295,447.73087649707094
-41.72943869721057,922.0967404771254,388.8901918596055
-33.66858203362005,953.021674068107,392.8313950227652
-36.45842362070636,949.4557264713233,424.1978657339663
-55.26270438936845,976.7545492089553,431.6734052913075
-30.578434021811738,941.2143800380355,373.29363238210806
-24.152692305731318,913.800329368337,342.08623740013155
-40.19395002370841,921.4859304655515,322.1966726659971
-32.978845987161776,967.6454242784234,298.6014592139008
-9.095144621251908,998.5540424099974,314.55287993351453
2.30169323877165,994.5608337199759,310.8125608643115
22.551431936492076,959.9016993570691,346.5546338454009
35.123513126296956,832.623780801803,402.11693085814227
61.91502704797256,839.0969393217869,284.75779190651247
42.047488184038386,850.6809155012162,264.79786675368246
-0.8591731121228963,874.0497519540313,244.4535085885598
-8.704042664926352,951.312629695156,224.45177507099777
-27.589441858330833,947.6956962877233,235.95519366960178
10.672043970163104,966.6389643762143,224.69038866483461
36.420286234340985,908.1939296293842,201.7253598323587
66.86727883629986,853.7941090994376,202.3657416141088
69.27646036108152,803.1978300438989,171.17466209153994
14.1280661591879,807.1747232745128,135.01450546312964
-30.942268766602258,877.339356457098,153.72527825506162
-27.172377927222854,962.2511255117702,133.87242330459435
-56.74649345087263,1005.2841694156518,160.75622154354446
-25.26510072246894,1039.96777696767,172.88472618070392
-9.714489657528311,1020.5727745968298,181.0322587223976
-59.455165627405904,1032.6360173963587,188.0958329296957
-78.09588391550632,1063.8393335134833,199.48504331244618
-139.31566844947054,1087.5885241137391,206.33753626365785
-147.13179322194637,1091.483840047315,202.28212488464465
-123.08382577128785,1126.2969515583814,222.14823614588062
-158.31094206482337,1145.7429397398707,201.9323622235932
-194.6097800981987,1154.318753091015,264.15340610708046
-213.52347641651332,1204.764114147033,263.69963239230526
-204.48165275603802,1239.7913660628249,295.1140297655163
-162.2001397011212,1127.4492308790466,315.7490070513376
-185.67298720766013,1038.713526025707,323.5467769319799
-273.84682842764863,1013.4745300382904,451.8229976597513
-266.1673456277118,1028.8528702462106,447.9613323612039
-218.20091468544305,1074.2812275343772,377.88439477293474
-167.3966135224567,1039.315158591364,406.2355646423601
-146.57298873723445,970.0386982302825,465.650349507732
-119.4046896748635,803.8178175013895,505.8638780827296
-63.264723427470145,741.1633942273866,471.59529502939336
-27.131283363839845,805.9163934676981,389.5010018711793
-49.21803062207788,914.4876180958839,396.6522716727935
-102.15924908098079,980.8089408717555,411.3341457072497
-91.66167855485818,965.0053790030234,384.0730524694978
-69.46612757669541,871.9093676229905,376.8697771410217
-38.582492492339384,802.1709758174301,393.2657941294938
-52.55005531960456,756.3102588549608,444.2322301703436
-35.828239001086,806.7240087083766,471.78496224500725
82.53858351220856,786.2185353816034,446.15439523180703
67.21551192303184,754.4686513743226,343.9920870021873
46.74787006776015,777.4877251660864,304.3618361010131
78.44687023601332,843.1207394981978,316.3883691168748
103.64701503571557,919.7055059576921,249.78968353107336
99.00169782749462,962.0176104989982,218.17950064497052
88.39573146793249,962.3459591195772,245.49259940958433
62.541132802741,889.4586836483408,292.446452152366
36.98520901633076,878.4375908184753,335.27147394880006
37.394727047462695,859.2302162308232,351.04138518250375
63.76907506640902,851.1479455267599,335.76501659588143
67.5682317611009,843.3807671325071,335.8476136091326
102.7129549846278,850.9531797300813,348.12295738096094
118.77960363630804,905.064420571755,356.02983689639177
83.90694069840364,955.4883675873004,339.63891848898453
61.08518199385112,998.2236543569926,339.15353357160706
30.77534122253777,1014.0384331040672,350.4193582925872
53.378268827785234,998.2827978973452,339.03728592332754
64.69354978509482,982.6841989874218,335.33469635400473
62.1488479756084,994.6281349900324,370.5781281069479
58.97630689379147,1033.451790366741,382.17332116471994
59.05829207731489,1025.742735796628,386.12574120622236
54.71460692489281,994.7555995166546,378.3157347310244
51.05351980543815,925.3200634263485,398.11862358705577
43.59327599129163,863.6506860140823,417.83789571362297
73.38530486965477,832.2577026813439,394.8422753947577
93.00688818301867,843.7835550366334,402.9459601392933
97.10553552946216,859.2628471496383,406.88002528896214
108.36524195316444,874.5463537497516,395.22364925841146
78.24608811367797,917.4427556810941,406.4017783850755
59.005980635589125,921.4604375602272,406.099942386034
74.61090178603295,909.8030418134634,414.2219820224032
104.59433139757206,866.8719695308797,399.1169257595612
91.88938118521617,820.332121570567,375.5359883344466
115.52772863312143,855.0402023116968,383.62233790336154
114.92711578367742,866.4752999240313,363.9520121550173
77.15560359551938,897.859105810853,378.9785502694601
69.33917290817966,921.0627482371656,370.93400906527717
88.41531001922166,932.4519586199162,363.3320246975267
133.23917953633506,924.0148266737367,324.78573213074804
128.59539190243356,908.3988925881929,305.14599786879313
132.2847251609877,904.46686687095,301.2894311513106
117.11542677672804,939.4043837599997,300.94476707132407
115.14329562082874,974.6631112561375,347.89148180061494
111.9984908200048,998.0421448710824,363.46458780521385
114.95158897278888,1005.5095266987199,336.01076820320907
118.5593449343048,1009.2804372543122,328.2028011604371
98.85649023876655,986.1481749629079,320.1368459157817
99.7833103047422,1001.8283511698695,343.6453834897749
99.94687278530387,1005.7318248331491,347.5590543151841
81.55211004777372,1013.8232729831288,370.804505106229
103.58277291429796,974.7518265666665,347.71813004440867
106.80915501216012,962.9792028878364,332.10729453992957
100.6846374653934,936.4023392289926,383.1257361076413
101.12168783427573,901.7544217444287,402.87254057195884
86.55432793053694,848.0194561853436,438.15676097342117
83.81934707570885,832.8827887198994,473.4889080368934
117.62834403185595,805.362687564051,454.46508236757717
143.129407086008,808.64617376984,411.6645337602545
142.85714285714286,789.2685065746203,407.80184874549417
123.5906247291379,789.4173851417152,407.51224934100844
135.06855042241747,816.3409523129715,399.7440512305426
132.16847751270822,874.5381960200477,415.202949019288
143.01927773500634,870.4093650737001,395.7559411215859
149.96354514538606,858.5724992734523,376.2773220212815
149.30888733665424,842.9606440527601,360.6216190034314
158.05193414672698,854.7475437585722,388.18556795643775
157.39727633799515,858.44503474683,368.539715397205
163.90408549300733,881.2560864311463,329.314291832583
191.176395609102,942.9122075326437,325.59028822278765
196.01188989104335,966.3004185935055,349.1314567155961
185.13253761478182,966.5604462278149,368.5907012078539
180.18895341426483,947.0073878439631,341.1103689843117
196.9938766041411,931.7901627976936,384.58393029219974
181.57984632876673,931.9084498783989,384.35245471185374
161.76778002681857,931.9206864729547,368.35718619508197
134.63007245083696,889.6075622154355,372.0179673996727
143.75551284077642,878.3182840215569,415.36406418093856
151.4349956407132,874.389317452953,415.49152870756075
136.56651353928203,893.9546124313605,426.9776121305441
120.79660230557836,959.6365731416947,402.9714530446177
97.73000973828985,986.8619763119924,398.61012680171115
108.41928691245226,920.9026527917282,387.2188769865347
119.05390729759908,847.2047029311743,375.8521003604697
144.93736393161782,846.7223771624357,344.84456975623687
169.58492451550734,850.7890054197917,388.3711563071997
166.46663233622084,897.3461885557251,399.9408564596473
167.6658186026829,932.4040319579062,427.3130987646138
165.63964248749576,940.6158066210174,478.2754559406117
141.7293367255893,886.5300586846681,466.3254016407234
146.31907940020295,894.4083861461356,485.9906288080027
130.87751678707818,890.6588896310158,485.7724095384255
137.82178419745784,859.512677621818,470.2829202632908
145.77455094247273,836.3437055467464,482.2543886036517
124.70721398234873,832.1791845329446,430.9330913206855
149.90950018609823,812.2162002314757,384.28209429315825
172.86637128887034,808.1352959471379,380.7151269801615
161.11720108293864,742.5247153717121,388.6097699010366
122.96553869058243,681.127602188311,411.7930180030898
97.73765760988718,619.9833786257285,474.41481035827735
75.59900679640856,604.9609193761377,505.5314505972988
61.60187219896703,671.0874763553304,532.5712654168345
61.3263448782204,806.1845788317112,496.789423503439
63.06924382944227,918.6174687584446,523.908776187587
78.12769906135124,964.7524893822051,504.3557178037353
55.82579168217485,926.5172102603846,535.5467973263042
16.474331193628817,868.6809460927026,523.3795434730515
-8.50821636338607,823.0466061295142,589.8772771537682
-24.87526321424748,764.9972212733197,574.1297996767499
-58.4388144779308,788.7168401033994,601.0186964967651
-38.70893730274865,835.0272519157919,605.083285321695
-29.393727725573978,870.1279233989181,644.3505172510492
-59.648809736250406,874.3719822773323,659.5809986080875
-89.7307439339632,819.733548153549,580.8221971825242
-155.2650497366583,739.1331392473476,595.8110057970868
-180.3755614812398,707.9175865356673,544.5203000005099
-148.6215986091071,723.359149148792,568.4917887351951
-132.19906899909756,769.836794420113,588.2039228482713
-101.15523649768271,839.1672997404822,580.5856230211133
-95.17531470991625,870.5653816542858,635.5146762655953
-120.02263769992813,863.5833847440258,697.9600577159378
-115.45838793063892,809.6658899828178,729.6069503857078
-66.17091463445725,688.3604492869636,620.8654331499545
-71.14723172541083,515.319706525674,735.187857219336
-55.17755808558479,413.9344220503434,661.2013276705094
-52.82996742006701,302.5283863500788,751.8785721933587
-53.97714815966717,391.0642268256745,700.5429988834109
-56.66144911871027,557.4492818648571,699.9413663177539
-52.411781801124754,774.781398336843,777.7640682598034
-49.32408110822759,878.8312012766847,734.2884675194895
-11.608347396919438,916.9471736015868,703.3278438610536
49.86504055921238,884.5334543396574,594.4690592608077
88.57367194709714,786.7355315015832,509.037234937517
111.2683740115126,700.492013072762,403.7036092855359
133.35338775218858,669.1581732803761,380.59174131839114
89.84688961062137,684.6527611365758,344.5661872300939
27.33614435102711,763.1484757791908,414.0088613338908
2.4332162359215435,825.6672767968676,460.5201572402401
-10.879352276261518,756.7987029209772,535.1205559492794
-39.2519361861594,719.0335129733396,613.3154543090659
-31.187510515823448,576.1733109675579,653.1639244798174
-79.4454783233826,502.64871286321016,609.519050848149
-148.83573901383247,537.9349726970985,600.510877822702
-232.44125159967982,647.0160554317735,610.6641921553232
-235.23425430702636,778.6165510138529,614.1036949416979
-212.0071584078151,909.7693911784352,590.4615745438045
-158.19571413275688,967.2467152391491,575.3748731727961
-130.25854904580058,943.1120719103875,497.3818786231792
-133.94686258814173,869.807732508043,517.1970040737664
-169.6889355692311,757.8133205528902,509.19019236946366
-319.9747110379182,492.6269419220631,1006.2610575476846
-263.2356615154003,342.17189356202175,674.0252787649198
-321.73882008637,391.65056364813677,531.6963489060995
-392.7314628338934,617.7603972814367,659.3821539465567
-388.5118771445907,966.3901536202476,709.2891048421226
-377.64782061152385,1241.3209403822916,743.8462675837316
-352.0957717467229,1445.4375347340836,661.1238292383231
-365.8456251625173,1449.8325116120186,707.9981441164924
-371.6936976439457,1230.2264279850917,806.7668367893216
-306.22689705454974,1004.7263846471528,741.789499982155
-257.51097469574216,860.1061524577711,621.3436800538411
-191.64648478328485,794.0377193027182,646.1013699887322
-143.60561455746867,797.9942182090725,697.8274946082506
-148.49515379869783,786.1777467330843,670.321669479384
-153.27558340513838,809.1468544304121,638.7757287146987
-204.18899420291334,790.0190177073722,618.4548240224746
-209.18764307893113,782.037698908394,587.0098351628742
-234.05342293239795,766.3310100798948,539.5950706918265
-255.5826913370009,715.7071986866056,484.4987839884161
-253.7828922210949,700.7112520585522,539.5206314082792
-236.70570480235352,724.1810404164522,582.8677479057579
-248.67513371028846,743.4771303146335,566.925504632061
-269.55280345479855,805.0119051867866,507.5351929558005
-268.191482310473,921.2106070880475,522.8625473530717
-297.9294662295483,941.0318508359125,549.8228243079951
-279.4246761126379,929.1052500089226,530.516537247684
-268.60038851187716,882.4889233326367,519.062065027303
-244.93277520865945,824.5190763410544,547.0848862761494
-222.8752938057339,808.6267991617934,519.9961250783907
-231.59080827805624,781.3993565590697,496.4100890722113
-234.10848760789875,797.2120958737185,531.6402645143858
-241.1883772746045,828.323637531675,543.2038463695553
-249.54903050481053,812.7719455675486,527.4318957034258
-232.44533046453176,820.8011910285369,574.7569251477315
-217.9306898890039,808.8705113366951,551.4666068433155
-210.68662591200868,762.352077416855,547.8078650711508
-213.05848582339536,734.723886342431,485.0708447838967
-204.342971351073,742.6409630199917,512.6470303314588
-202.29844034405227,801.0819189019696,559.576409885129
-200.99014444280158,812.9962831344037,594.876945745999
-198.03602657380452,781.845992260354,575.4034252267595
-190.57476304344505,785.586311329557,567.6535820081272
-210.3592970076428,770.158005027201,555.6352067219693
-248.3773765760989,843.9609856576915,554.816374602948
-245.370233464027,897.7856862435186,519.3588024452795
-209.23556974094112,904.6096271407669,449.23393819500035
-194.3130426802221,912.0912849953858,433.7332320415229
-228.77639153023713,923.999530930542,437.101354692989
-249.68771190977552,909.2850259772706,503.5562602927606
-260.5935768075745,905.6762502995418,523.0287610957871
-239.8525490356034,863.4161512850974,574.5019960944869
-221.40180387798077,766.5155787144438,571.1807803888179
-209.89430641452486,700.7601984367751,583.3490539582834
-209.89430641452486,681.4508522278251,587.3381837834531
-198.79673486868606,654.2121927467587,579.7474162940455
-169.68689613680516,641.9572432991899,533.1290501853334
-185.21003604696816,665.2200292658554,524.9692810490841
-192.8364936038301,734.814641085386,512.8458749929895
-193.73690301988958,761.6219606083628,481.3448017416753
-211.72367730060725,808.4340727975405,508.390734858489
-259.22919651461,848.0898166040391,574.2633825006501
-298.2007107422005,902.3448374317428,549.9492691184045
-291.2584827642467,948.4360102583452,518.5002013939521
-256.60444698240485,944.3000412985067,519.0335129733395
-264.0922231343017,898.0712067831523,534.7758918692929
-244.5514013450057,840.062610575477,554.8877547378565
-234.51637409308992,739.1810659093576,531.8299317299995
-223.00887662963402,673.4267053479017,543.9982052994652
-237.63160712373747,669.8821717915905,567.3384896983171
-283.81965299057276,697.2860252991594,562.630459942998
-295.51681766964253,755.2691286015103,546.5607521426788
-293.7731029454503,829.0823063941307,581.6593841933791
-293.8567196749145,894.7143010100291,565.7385549601547
-260.70268644236313,890.2010370513887,523.078727190223
-253.10478093946458,874.666680262883,523.2449409329384
-246.78763900006632,851.0867625539814,488.09838222022813
-234.24614929665077,855.1064838655403,515.7449281864858
-234.08197498636133,839.6995916036568,523.6487485532776
-230.03676076947787,789.5132384657351,539.5767157999929
-234.95281263224447,773.8289833939215,512.084146981895
-234.13500022943617,754.7246001437801,539.6328001917067
-202.81645618024507,785.5047340325189,547.847634003457
-199.45445182605684,812.38547312283,528.1834265523905
-215.00410435775726,773.8514171506071,532.0053229186318
-210.8773128438356,773.8891466504873,539.9162812989146
-206.91469564020335,770.0254419195139,543.9135688537881
-183.41329607970104,824.0092182345653,544.0838614613554
-202.1913701416896,874.485170776973,547.5559951665452
-198.96498804382742,882.0218933070928,527.9560298368965
-202.92760524745967,866.577271545329,527.9488918234056
-210.60606833118345,831.88652597982,535.8007066633356
-214.89601443918158,827.9443031004473,523.9750577414306
-208.0343440420531,823.8113932892477,500.5440185996238
-215.3589655998736,820.1047248550728,512.220788954434
-223.36577730417628,816.226744097118,504.26496306078025
-252.9660995344996,797.463965778324,543.131446518434
-248.04902795552,774.5295284322374,578.6032947030842
-256.0833719975731,786.092090571194,566.6705755788165
-265.9521855067735,775.0200119306797,617.5799075117396
-255.18296258151358,759.2847710482174,598.1716488301306
-229.08026696170455,731.8248331489348,579.0315755125349
-229.02622200241674,720.2520738478482,582.9962321485931
-236.8963917341804,735.7181096500844,574.9771838497347
-253.26487638490212,716.2884369280031,551.2494072899514
-291.062697251355,724.4951130100494,570.2793512565454
-301.20683413805943,771.2827520101157,601.3664197253904
-275.07762589671296,786.3092901245584,574.2348304466867
-249.49396582930973,762.581513564775,539.3758317060363
-227.73628099299967,742.7510923709932,504.44749226290327
-205.6247546307863,773.2140945174958,469.35395879326785
-192.29298486231284,831.4980141026754,508.60385554700133
-187.21479812168275,909.0137814646184,528.0416859987866
-225.69378941840486,897.7397990139345,531.4271438258734
-227.2213243054458,893.4947204193074,488.2482805035359
-223.80323555954382,850.8746615816818,484.5181585964627
-227.3294142240215,839.4008147532543,496.2785456807371
-227.57516583134915,881.8199894969232,480.433175447273
-207.62747727307493,939.7704618804587,488.385942192288
-178.7164832027247,924.6001437799862,547.7385243686683
-119.21400274303663,830.8984209694443,505.77516277220053
-93.87568639647587,810.9701070192166,463.05109288085134
-104.644297492008,788.0866554837789,490.43965064522547
-115.25036582319142,769.1056578954078,521.7418792350089
-118.7490121499187,761.5006143790184,533.4890100085147
-117.68442842356974,719.2874223103711,572.8939036266208
-159.11753758928893,681.2346723906737,607.7233305970949
-209.21211626804265,662.3128183426553,610.9609295732998
-262.77882865198615,658.9630505830229,621.9432731870721
-293.47024723019587,659.2353148118879,625.4072491625581
-310.00290619120705,693.8302070533771,585.7973925856435
-310.08754263688417,836.6995865050758,553.9169849031016
-299.23878184701204,948.4268328124285,510.5321389057426
-292.18642451805664,971.3745264692838,487.0123844534067
-271.52085574584595,1009.1988599572741,408.7022581615537
-245.2274731942101,989.5101793170962,393.46361907481156
-215.87188285500147,954.1464210510217,358.700473658181
-212.99934228304267,911.3897202408571,339.2646826388216
-188.05096541632466,861.4644144534576,402.6012960593068
-160.50333192272592,845.9524914216373,422.68970545497194
-139.78983648850527,799.823589095155,474.17517704822757
-139.24428831456208,799.9602310676939,489.8818658767266
-176.9064869246889,827.5099039937187,508.8475677219031
-198.66417176099893,847.3403251875005,543.7759071650361
-247.39538986300116,809.4507298618795,590.2698678957647
-256.0833719975731,786.092090571194,566.6705755788165
-265.2077926712996,778.0720225561228,527.3146283389334
-232.13635645199943,819.8814070044308,472.7241208771599
-216.4521013801859,897.068825745795,464.8498722805444
-219.65197085651064,932.0195989456134,476.45730193287216
-231.10236421203982,928.2741812953457,480.22311390739964
-227.79440481713945,889.4892751347302,472.55484798580557
-235.9643711155186,901.0181866386586,456.6952017253599
-216.28792706989645,900.9712796928615,468.7635431059537
-209.01735047136384,877.6309952940097,461.10241519785046
-213.0340126342839,854.4487669081695,461.1197503734711
-200.7912997812709,854.5303442052077,480.9256983781414
-224.211122044735,792.8436316173211,484.7078258120765
-221.4487108237778,792.5407759020666,453.3535916954312
-220.57583374546869,800.4833454849517,476.8876221747488
-231.99971447946038,800.606731146722,480.6401778385076
-204.0717268384209,839.2560150510114,500.55115661311464
-211.044546302764,924.4624820912342,504.0844732910832
-233.91984010849782,920.8404501027366,511.6028409293694
-204.31849816196157,862.3658435857302,488.6959359210332
-192.701891063717,812.0856765562145,500.81322367984995
-147.25008030265178,757.4645776080517,489.9053193496251
-119.59435689047739,757.4268481081715,509.94274293464133
-209.0244884848547,805.2494990644104,586.9333564469009
-304.8166295320013,902.6772649171737,581.24537941091
-287.21428826357624,956.1776957472736,522.4597594489454
-213.9711318340106,959.4815762773221,523.5457572157669
-184.58698944083864,850.7482167712727,504.7289339376852
-171.32558009106066,738.0940484263231,466.0623148577751
-233.25294570521027,719.1925887025642,461.2737275216308
-245.47832338260264,843.6917805774654,527.3890676224808
-227.08672176533275,970.7667756063489,476.2156291903963
-203.69341212340606,989.9659924642973,480.4260374337822
-179.72498253735986,897.3135576369098,524.2677162945553
-158.51080644256706,780.7997634258387,493.5824160136235
-174.11348421734235,676.6000622026891,509.39821447691116
-171.1583466321323,568.2123864928391,505.88325269077626
-176.21206018365092,591.1121534876844,466.484477369948
-199.68796683882877,656.8542774545845,442.36309035195507
-218.30288630674087,730.5430498692215,445.76078477359755
-256.64727506334987,757.9214104714658,445.09389037031
-269.74349038662547,777.9313017187318,507.6239082663295
-301.72688940667814,871.5616443943652,565.6987860278485
-281.5344689572892,983.6396730789822,569.5471950156273
-277.0823879714276,1068.7237741736476,569.326936313624
-254.88724487975,994.9350695701388,558.1345311599782
-179.72600225357286,916.6239235620728,520.2785864693857
-164.71985846338967,839.1642405918434,524.6888590905152
-148.62261832532008,761.9788612829051,560.5125093686428
-166.52577587657356,743.1599985723974,603.4782520024678
-172.78785314047101,755.1671569802126,642.5904870674492
-200.75255056517773,775.4329969969358,720.5957182116218
-204.0064650007903,802.6471832888908,732.2286407692741
-184.73892715657234,821.807650930746,728.5280906323771
-145.95809986080874,779.0907190528877,744.9516399585997
-133.9529808854196,739.4981976515936,654.9983939469646
-150.62024238654385,696.8210347060414,627.4201689669766
-205.71245022510237,650.6085156500947,603.2039483411767
-244.60034772322865,600.6118297277868,602.7899435587077
-286.7431793731805,577.829330097434,614.0088613338909
-367.7300607241005,633.5017564611769,710.7238455537826
-403.83107381215814,722.2374613145163,651.0143627028599
-409.9554893873036,714.9699438646226,698.0426547291889
-370.9747977137963,655.859034430718,612.4843855954889
-365.39491059638107,605.0608515650096,561.7188336485957
-398.3766117889392,627.9300270734656,494.42980018660813
-411.1383601943579,689.5086497427767,446.9354978509481
-366.8439273350227,824.8260109211607,474.614674736021
-340.00805575808255,901.8217230144852,455.1340162032906
-325.54949957426857,940.0814753254169,419.89976189626435
-299.4478236706725,912.6215374261344,400.7596885786686
-293.048084718023,862.0293372354475,373.55467973263046
-304.22621384468704,819.733548153549,393.15260562985327
-311.4682383892563,789.013577521376,412.7709258513357
-307.3434863077606,808.361672946419,416.6917346902358
-292.20172026125135,788.864698954281,413.0595055396083
-231.7447854262159,753.3306480806392,386.6131655560258
-186.59481066419218,752.7004634610189,355.89421464006574
-160.43807008509535,752.2864586785498,332.73951859197587
-156.88537879908026,767.6291088190158,320.9679146293587
-210.45209118302378,783.5897069845463,327.96010870174837
-266.1296161278317,892.7024009218235,366.0047008917419
-310.38224062243484,1001.6906894811176,400.29571770176364
-333.50430575170935,1059.8012573100907,387.97958528141623
-287.5089862491269,1082.5511260216283,376.8177716141598
-244.95622868155797,1047.503479781577,389.3470247230196
-234.40420530966233,1000.8218912676604,370.0397179464955
-239.04799294356383,965.8966109731663,354.3891135097103
-257.659853262837,923.729306134103,381.7256657472226
-304.39242758740244,931.6871714601828,365.3000769885741
-341.2908587540088,932.3948545119895,411.8399249488868
-371.84461564346645,913.3914231669327,423.22097760193344
-335.60900001529575,882.6184272916848,474.8869389648861
-308.9607562215436,835.9857851559912,475.4437040171721
-304.6973227350829,797.4394925892126,495.26086890018513
-294.7265376045847,751.6052882482805,570.1325121218766
-309.92132889416877,744.055309407392,577.779364002998
-336.43293071538193,771.4132756853769,585.1396756282728
-337.6973788194746,849.3308112352335,643.7274706449195
-338.7894948835739,906.9855659170054,600.3456837961996
-330.9743898273111,961.0193083264928,592.4306465510649
-315.5338469303993,1003.3874972595128,584.6695864540899
-288.752020312747,1034.0228314460087,573.1937001932363
-235.78592077824743,1068.1221416079907,538.5508812897372
-192.90787373873854,1118.1188275302984,542.9489173163109
-174.0502618121377,1156.490748624658,523.4784559457104
-189.8466856673788,1198.992520381578,503.4757027119353
-170.55263520162342,1202.7144845589476,503.75204580565236
-154.37483748272857,1195.0564157994831,527.5685376759649
-155.02847557524743,1140.827907593317,519.892114024667
-137.12225887535502,1063.1051378401392,496.87507966532917
-72.8394507808477,985.0509603177437,478.47837946699434
-20.58083035491223,937.8676714270421,440.1737596426915
8.801813055426676,925.6810429657428,401.4082280901226
46.13604033997339,948.2545007724352,362.64575568619256
57.28612727078055,1005.9908327512454,339.0699168421429
69.88094813213483,1094.9814666578293,350.73241116997144
96.71804336853054,1133.3635849143184,339.23103200379336
127.76432318885655,1106.1473591899376,351.56144045112245
165.78240275731267,1051.653724768397,348.39012302876114
195.2481224475229,973.8330622587735,325.5464404256296
227.33859166993827,934.2966252491932,259.4423172031224
233.43751433975928,918.3849734618857,216.41641131273173
209.19784024106096,933.7306827509905,180.67943691270722
189.87523772134216,964.761666828122,172.43605104699364
179.10601479608226,980.4969077105842,191.84532944481552
187.90310656544287,1000.0203943242598,219.38378549249745
188.17639051052095,980.7793691015792,231.22676959002314
199.02821044903206,957.3401722300684,215.76991123370368
228.02893954612435,929.6110292505597,169.20151121942766
193.26681384570676,879.654112260558,176.69948453345438
196.1393544176656,856.2067576593436,153.27354397271242
178.98160941809897,821.1305593653287,109.96415697511382
164.46696884257113,852.3705852661205,129.26432573814708
137.7646800895311,871.9562745687875,132.72320313256822
109.47367347667145,865.1068407662149,206.8902224510919
99.03167748415616,830.7199706321732,246.0952516914543
104.19562235829771,765.3663585424177,297.41348982578154
115.5654581330016,718.8866738386708,301.6657064338995
119.01107921665403,699.4447645220336,293.9331983908878
111.1674221064278,699.4702574273581,289.8910433226433
137.1324560374848,710.5943415947343,258.8457832185303
170.85956978172976,710.0875426368842,231.88040768254197
211.5289115039285,717.0532240877365,181.44524378865364
222.78963764384378,713.0263647626866,173.7790172994856
230.60474270010658,728.441414754274,173.84427913711616
235.0313307806438,713.1079420597249,193.58496530415587
263.342731717763,690.0633753626367,237.25737127357462
299.0052668342401,693.9036266207115,265.25164046845765
306.93050124150454,666.8658512336018,277.23534540337425
335.0226631928335,690.1092625922207,305.0501445447732
317.4458148297329,698.4066934172221,351.85409900424713
303.0963682807075,694.9304808471803,383.04721795924195
284.9189070681629,695.3526433593531,414.1709962117543
258.3277673823375,672.4855072833232,429.5483167034615
248.04902795552,680.6197835142481,464.6887571188938
225.61017268894068,661.6601999663494,487.96377968011507
203.98912982516967,681.5242717951595,526.819046259426
180.97719404689678,677.8685891716336,530.4115064777473
158.45676148327922,647.3025956876203,553.7252782550617
159.08490667047363,620.426955178374,577.3724972340199
121.6684596676745,586.2470874355668,616.173718854043
115.18918285041275,586.6152049884518,651.3967562827266
142.79086130329932,598.1492150734451,667.4705429478977
154.45947392840574,594.225347085906,671.5830584348377
191.44050210826327,585.8147277612642,628.9946107998145
236.3732773169227,554.2341166453376,598.3766117889393
249.0605864387941,514.811887851611,528.0569817419813
254.77813524496136,464.04837533714374,481.2183569312661
288.34209439512983,421.0194102981141,458.3185899364208
307.71874187413647,417.0363987702223,462.54633335542724
338.98222124782677,440.0789260348845,470.7866600725019
355.2405765475469,463.34375143397597,490.57425318533853
388.91160590007803,551.6460768967996,443.6856622801875
414.84808777717166,616.8293963789878,400.68320986269526
398.5336480857378,624.4466764899329,372.9408105724178
382.5659119067164,648.5945761294632,462.8869185705619
343.4312430850495,641.0180846670372,446.6275435546288
256.1109043353235,614.9969663442665,488.5786685565408
182.34871235335208,692.6636517057303,455.814166917347
74.61212544548853,851.8750031866132,426.1914109303381
40.937017228105425,995.2858519474031,425.2033059199625
15.734119194628136,1053.8665089505591,463.87400386472456
40.81822028929349,1061.9018727088253,519.1670957972397
52.923169481933186,1100.5695115049482,527.0678570153927
23.70452703012752,1097.3472082719381,573.7361892185405
-29.236283542290185,1163.6695507640225,588.4180632529967
-106.20752244650315,1281.14085849908,677.1343934982895
-183.80486710548456,1406.188657696563,746.1936543060067
-183.1604064588825,1350.287814901113,554.0852380782429
-388.9911437646904,776.0407478598707,623.5829768575406
-506.9763884710885,1251.3447507558647,455.3777283781924
-157.48497193231125,2287.3254373307914,657.2733808181183
-191.42724579749458,2275.313180341911,1013.9466586448992
-82.11009875951524,1651.0837034053427,962.7446681588515
-70.92819668286316,984.6573498595343,867.0453212870859
-50.3628660143882,601.5101997114203,872.5701437290004
-8.406693417221987,384.8072481428419,905.3264876384903
76.91525648412048,364.979886097699,926.2949121259554
103.80914991357906,314.5467616362367,934.7167483289402
59.256932795602985,361.6709069865857,973.1365960853096
54.03873901893104,419.2869124522646,921.8448705725198
76.45057180586643,415.0683464791749,902.571214431024
112.4237124808166,321.44310238460645,848.4813876298227
95.29411164872818,212.99832256682967,821.1183227707729
76.10794715830586,244.0619375627763,816.8018640412374
-1.6154038331132448,229.04559661046335,799.9898028378703
-54.36545609356917,303.13919636165264,818.5720913869671
-77.46141648779145,423.0425272646623,794.2742934641291
-132.59369917352004,570.9115753085916,840.0452753998563
-179.9370835096593,691.7071578979571,893.8730351343222
-215.87290257121444,707.1079318625627,854.0368015581264
-222.99765975129122,629.0792472454916,775.7001626447361
-279.9702242865811,509.0178603294704,712.458382832058
-301.1466708814937,527.9978382016285,653.2077722769754
-376.4109048451816,682.5246134000909,561.2925922715709
-366.41768595799795,872.2723865948107,588.2742832669669
-319.0253552436357,1048.8597023448376,474.5749058037149
-274.4331652501109,1265.3454543600517,494.1361219172705
-243.80496907710585,1281.507956335752,596.5798718216721
-316.71977688609263,1208.7715988640362,619.2807941549868
-378.6155312976399,1000.6403817817502,654.377386773261
-373.7759581508467,792.3154186189985,725.7962708978092
-268.4821014311717,473.1575002676756,606.7862113973682
-245.13161987019015,305.97808629858315,537.0569970377245
-237.41542728658618,262.44334201791645,435.27912182039745
-258.0310299643609,444.75942345245323,469.67720883278184
-356.1267099366247,704.8064323698716,475.1795975180108
-488.8743862583044,872.4426792023781,500.0984026145524
-584.3942630765858,931.3200736235107,510.2425395012569
-555.2018273314537,892.0528416941565,471.56674297543
-453.30974389827315,759.4040778451358,438.21794394619985
-315.4267767280366,580.4744739538987,452.66120438681924
-217.5901046738693,560.7980299082766,501.28841143509766
-186.99249998725355,708.251033737311,575.8174300092285
-154.3411868477003,909.2891048421226,587.4024259048707
-139.66543111052195,959.1899374404104,556.0563495179292
-143.24667445050045,978.5971764058064,559.8619304247629
-165.08491686763574,967.5118414545233,598.8181489091586
-172.49009600628148,874.9613782484334,626.4922272131666
-153.89353143020298,753.9282017814443,521.2146859528993
-148.25857963728697,710.8686452560253,470.4236411006817
-133.60831680543305,718.2819821243748,447.07010039106126
-107.24661326752766,908.1490621160133,501.76971748762327
-119.55458795817127,1059.658497040274,559.9435077218011
-164.78817944965917,1106.6164286479075,578.7307592297065
-202.77566753172596,1029.81140348641,609.8178276985516
-168.03801502041983,921.4247474927729,634.2512478777157
-149.7769370784111,797.4425517378514,631.0187474825757
-135.6161380287866,735.2184487057252,607.8926034884493
-128.2109588901409,808.459565702865,584.2086747258238
-101.15717395848736,935.7140307852327,560.6369147466261
-81.75472765929243,993.5278611962293,552.8829926631419
-116.51685335971001,962.8802904151775,556.3908164357861
-127.25854394721951,905.2459300576651,591.7453972559438
-105.25510750358177,900.9253924632776,560.6929991383399
-113.20787424859662,904.785018329399,552.7116803393617
-115.31664737703498,920.6997292653456,599.7216174738571
-89.13298628991552,924.1555475111278,576.5546848312115
-99.8112505289778,869.4029051714909,502.01139023009904
-122.7126490697639,823.293377453055,517.5222935457064
-140.49853925652494,776.4751469665994,458.54496693570184
-222.29609499676243,885.01374067597,409.8575966308577
-264.5021490519189,936.5869078635417,515.0168508104194
-212.35284220401462,912.5481178588,468.7839374302132
-157.87756267430774,864.9243115640919,383.41839466076595
-147.93329016534702,795.9119577021715,462.29242401839576
-135.2000938138916,827.0122824817854,489.8502546741243
-125.09572585949331,916.3781719547451,540.7208373909542
-143.95435750230712,955.2477145610378,544.2317203122371
-164.20286234340983,912.6694640881443,524.4492257804653
-157.27796954107674,872.7985601607073,399.09959058394054
-163.44623291338021,756.390816435786,356.22868155792247
-177.1145090321364,733.7765699805745,411.044546302764
-190.2402961255883,865.7737351695024,449.64896269368245
-229.86748787812357,962.344939403364,397.70971738565163
-204.09212116268043,907.7687079685725,374.73245195861995
-116.76974298052852,817.9327293214299,356.72018477257785
-58.37722361866693,849.526596748125,479.15139216755983
-41.883007958885045,951.0842132634489,600.7188999301495
-180.01662137427158,964.8860722061053,724.191237578582
-257.35801726379555,965.4132654882148,715.1820448369219
-292.9022652995672,914.2632805290289,589.2338362233791
-235.853222048304,781.3269567079483,484.57220355575055
-59.27447191446621,721.8591465995014,479.5684560986678
95.4356482590895,763.2932754814336,489.59532562087975
93.37796291292135,960.7307286382201,500.672502842459
-58.774403083621834,1186.4092223134303,509.40637220661495
-158.42820942931584,1211.4840439905574,629.4922323117477
-138.3652929389751,1014.5788826969455,693.2510082444056
-82.5877338336741,906.4879444050721,769.0189820173047
-172.51354947917997,697.3074393396319,662.4127505315272
-172.34733573646457,566.0444698240481,694.2544089979759
-93.80573386426558,581.2667934513826,734.6259935859852
-86.92020210775343,735.4774566238217,679.2645806672004
-113.84009830064295,762.7324315642958,674.845130600154
-65.93505427439544,747.3449139104588,726.634477624877
-125.4108181693035,825.6060938240888,772.5747324519587
-220.73796862333214,834.3267068774761,798.5897324774515
-192.36130584858236,678.9974150194001,760.2922506666396
-129.6416207369489,655.6173616882422,796.6328970647469
-120.94446115646016,616.1910540296636,722.3282160574713
-79.89180810980305,580.7712113718753,691.665349533225
-43.985866733288134,696.6680772740947,703.585832062937
-88.40246159493815,801.7539118863222,733.9631780475495
-125.84725670845805,840.94364538349,756.8180775290238
-112.01378656319946,809.5333268751308,717.8853125175265
-7.580947622276721,819.4164164113128,617.375964269144
57.435209781117926,903.7489866570135,586.6682302315266
15.807334818719951,1070.324728628023,573.7086568807902
-48.00293678269338,1093.4314980141028,505.9566722581106
-145.1566029174081,1055.355294621507,488.9314903662312
-148.18210092131363,954.1872096995406,422.5081959690619
-93.84805208710416,795.5295641223048,467.0290058276782
-45.77801797759684,726.1174815048972,534.7014525857454
-84.81163292255766,719.5617259716622,632.254643532705
-151.76640340993103,727.4288365547868,588.0540245649637
-183.8211825648922,765.9781882702046,544.2725089607562
-234.01671314873073,746.0335588605692,433.6985616902816
-206.90551819428654,687.9311487612998,449.9997450709468
-124.42781173999278,656.8012522115096,502.3601331749375
-86.44909321735761,777.0798386808951,573.1661678554859
-117.0583226688013,769.649166636925,580.5825638724743
-125.11815961617883,700.1055406280433,584.620640075867
-181.5023478965804,727.9407340937017,619.0034313450568
-321.4808318844866,705.526352016234,585.5852916133441
-396.9296344827235,524.0219646872275,557.5951012833129
-417.82259997042826,518.0321516521952,733.9111725206876
-429.06497121851,588.7117415223345,839.4691357395237
-371.50708957697077,514.8282033110186,848.4293821029609
-212.11830747502972,609.5098734022322,760.231067693861
-249.2176227355927,684.5395726369353,896.7843249223741
-277.617738983241,662.2149255862095,971.0013103353339
-249.27982542458435,681.6588743352726,1006.6822003436445
-157.1454064333896,760.9601647861401,870.4328185465986
-75.48581829676802,748.9346514864915,895.2445534407776
17.347514186801813,952.9890431492917,864.5500757139289
76.68449470512357,971.2409436453837,794.7341854761821
85.5353255189081,1037.1227687334615,814.2668495357742
-20.416146186516297,998.8263066388625,765.7140817710432
-230.43852895739118,957.4666170404778,715.6123650787987
-400.3334472016438,787.7705434577558,627.2978030214192
-420.02416727424765,585.9972569633871,545.2667322684098
-414.62578964274246,541.8812744413231,376.73823374954753
-520.676275792447,521.0025849806,543.9778109752057
-376.76066750623306,439.13772797030595,601.3552028470477
-208.3270025951778,472.305017513626,564.5199940856461
-355.32317356079807,598.8670952873816,742.4237634666273
-409.7423686987912,557.681777161416,847.7125216052373
-275.96070013715183,479.1289584108743,834.2828590803181
-273.688772414637,447.8073552130443,795.1757225964014
-267.73362973084596,398.0992489790092,866.0755711685439
-203.04385289573912,416.6978529875136,839.5099243880429
-274.7788490463104,447.5330515517532,763.7633646556164
-330.69090872010327,439.733242238685,708.0073215624093
-374.1165433659813,505.45293244889956,663.9647586076795
-451.67717824129545,552.2681037867162,639.0969393217869
-472.861782565912,518.1749119220121,701.6891599067981
-521.4828713169126,457.14081771043124,756.11141419343
-528.4240795786534,391.74029867487883,791.5496117430521
-499.66808237267577,309.8825796780756,749.0855694860121
-414.7818062233281,266.77509649064666,762.2766184170946
-414.1291878470222,359.62433654713897,761.9727429856272
-461.29820071074226,382.91975343261976,729.7904993040437
-535.4937720832294,302.1398744729342,717.1776294657197
-638.0078824063263,172.02204626452462,786.7243146232405
-646.57655774398,82.04483692188465,669.1612324290151
-570.57200980967,104.35469808752224,634.9028465378086
-531.903351297334,219.94768855827428,615.4690949508753
-541.002279065736,273.72446248209127,564.1314822085014
-497.71328639239704,227.28046784579854,600.2579882018834
-494.8213712123917,173.9391127449231,694.6724926452969
-477.108900592965,184.985698480113,647.8042960644053
-503.2095567803481,135.20825154359542,682.9029281151057
-503.4553083876758,158.31808007831424,671.0477074230242
-483.8889936930553,200.72501822742734,671.1976057063321
-429.31378197447657,231.36137213013617,683.6860701666727
-363.47886383219554,277.2802129167453,684.5171388802497
-381.9285892736052,296.9434006515987,703.7969133190234
-417.237282864179,324.0872265248582,679.6286193552336
-472.6415238639088,413.9588952394549,729.5161956427527
-526.5457623143479,542.8255316545406,814.6155924806127
-530.5644639096939,616.1900343134507,794.6852390979591
-474.5626692091592,611.4299990312696,744.519280284297
-322.0324983557076,594.3885016799826,703.6908628328737
-283.63202520738486,497.5103628660145,720.2918427801544
-303.2534045775061,466.6751643017749,716.1772878607884
-334.488331897233,370.2630357971377,723.8832832822626
-344.5763843922237,405.47893521233044,758.9350083871659
-324.0841673762192,482.8753957773552,778.6043144192972
-316.74221064277816,611.1638530996825,852.8488321700072
-253.20777227697533,723.1541861899834,884.8199945955042
-191.85348717451936,757.359546838115,869.9249998725356
-182.86366904090593,707.416905875095,917.3234488841756
-231.78455435852203,642.4467070814193,963.9061249254335
-252.25127846920202,607.53672253012,936.244283215981
-215.10607597905505,564.4098647346444,905.5498054891324
-200.78416176778006,602.635966410548,866.3886240459282
-188.4884236716922,649.0738427495629,878.1897997787216
-177.17569200491505,730.0229946006028,854.5385019349117
-156.49074862465778,795.8813662157822,882.0983720230661
-164.03562888448147,857.7720220462646,873.927386008474
-153.78442179541437,845.7689425033014,838.8002019038104
-122.26499365226658,802.2270602091439,757.0026461635728
-149.59440787628805,790.7603513942071,748.7827137707577
-153.06654158147788,825.6438233239691,752.5373088669425
-226.7726491717355,814.4993448323333,739.6970423131243
-258.1727705179649,791.4231669326427,727.5308081760847
-270.8774148154569,725.5729530471671,707.9390005761397
-218.75462058909008,697.6643400141742,661.7183237904892
-288.3635084356024,721.3105392769194,648.8229925611703
-431.94974838502446,695.1252466438591,623.2128198722296
-501.966522716728,680.0487424349803,606.5159866009291
-475.4273885577644,637.2502332600839,603.1335879224813
-350.6987605349432,663.6873957977496,640.2339228992572
-269.09597059138446,701.8523145008745,653.1017217908258
-376.2008433053082,679.7122360846977,679.0443219651972
-456.46882472607876,657.3304849260452,701.4648223399429
-474.30774015591464,583.46428189035,646.5021184604325
-471.6799314750706,467.270678570154,635.159815023479
-453.64726996476884,471.66973431294076,709.9825118669476
-384.69405964320134,451.7220457546665,703.2340299694596
-331.02639535417296,436.78422295075285,810.0523624275365
-289.5739115804072,444.94195265457626,893.0633804612178
-368.07166565544816,519.5515288095323,946.5801267507254
-518.920324473699,511.85063196912307,818.7586994539421
-685.891716335344,480.91958008086357,675.0755864642871
-687.5456960327941,433.16525011089414,526.0766928563781
-575.3891491997778,548.2606190697129,515.5940101869651
-428.53267935533546,691.1238802241337,611.5034185986041
-327.1270005557454,849.989547908817,726.3000107070203
-352.5750383668226,873.7519948198418,765.0849168676358
-315.7286127270781,768.7599740992083,738.5192700871348
-211.0465857351899,601.0584654290712,681.7832797132559
-108.60997384427914,526.4754018956525,652.1727603208028
-181.17094012736257,504.03348748043425,674.708488627615
-247.75127082133042,474.3719822773323,760.1535692616745
-337.77793640029984,398.4643073832553,845.4028643828424
-472.630306985566,388.9207833459949,957.2290231628539
-603.3201959894562,397.738269439615,963.090351955051
-659.6319844187364,365.67125369009807,789.6723141949597
-689.8431166606334,364.07029923572276,585.1447742093376
-589.1451209128501,345.9835927661332,382.6332131767729
-480.05180158361935,476.75607878327463,391.6760565534612
-353.0899950543764,646.6428392978235,463.6476268654434
-370.5138859855303,779.5557096460055,600.2997965666157
-408.74814539113765,745.1708789443899,615.5414948019967
-365.1583364349702,664.0453161885048,667.4888978397313
-294.5042394701555,570.1518867299231,613.9191263071488
-257.9953398969067,539.4472118409448,673.4389419424575
-309.54505361157993,571.3612701585149,735.3530512458384
-359.96696119469954,583.2511612018376,722.7830094884595
-429.16490340738176,529.7619472500804,737.6259986845662
-472.0704827846411,495.20172535983244,729.2500497111655
-520.7109461436883,464.0616316479124,665.8328787098551
-503.29827209087716,471.17211280100753,611.1251038835892
-517.1042098983853,545.069927039305,642.0663529339786
-497.29316331265017,602.9867487878124,646.0921925428155
-518.4512550157292,649.9997450709468,692.7115783677403
-431.5296253052776,574.5152524052558,549.0580371482617
-363.6746493450873,520.5304563739912,628.7488591924867
-377.29907766668543,607.0574559100203,773.4639249896754
-514.9893184726691,735.830278433512,774.8915276878446
-654.1510097739799,771.5488979417029,753.0634824328391
-625.1941284740457,653.9878551799035,612.6077712572592
-469.89746753478516,424.2396740986984,584.3116660633347
-373.47718130044416,338.554960154589,605.6675827117314
-378.2688277852274,424.3079950849679,672.0256152712701
-456.90424354902035,595.4306516496459,701.6677458663255
-524.8509939683787,719.9023111867967,715.9284771048218
-507.5739421718936,726.9771022724376,657.293775142378
-341.2449715244248,582.9656406622038,707.3659200644462
-263.6935140950274,579.626070064701,834.1268424997324
-296.9495189488766,641.0456170047876,751.0046753988366
-385.7443673425686,715.0647774724295,729.8017161823865
-405.77567263030704,722.7452799885793,705.9281202041473
-382.1631240025901,714.9668847159836,722.0070054503833
-355.0794613858963,672.3050175136261,734.3302758842215
-368.02985729071605,629.5646321628691,702.8832475921952
-369.7745917311213,632.988839206049,651.8260568083903
-339.4930990705287,632.6135836396732,636.5823191405833
-346.49141144019626,656.0221890247944,652.0962816048294
-347.39080114004275,663.5201623388213,624.5853578948979
-350.6987605349432,663.6873957977496,640.2339228992572
-360.2147522344532,664.2890283634066,698.9583598884432
-341.2745432946012,656.3342221859657,691.4195979258973
-315.00869308071566,632.7767382337496,676.1942151499238
-277.3016269572178,675.7496188810654,755.1069937236468
-332.24087736382967,754.1515196320864,820.7379686233323
-412.50172077110943,765.5325722851331,725.3057873993669
-434.9324183079849,780.3347728327208,630.7291480780899
-400.65975638979677,741.3459234295096,627.4497407371529
-397.86879311487615,706.2921588921804,604.0625493925041
-440.44704358776954,698.8482305374415,599.5248122447524
-443.3104067138116,678.8199843983421,521.0566299398878
-356.4071318951936,690.2846537808529,581.1892950191962
-310.9379859585078,702.3162853777794,668.1710879862136
-368.71204743719824,687.3213584659389,671.2812224357963
-371.0288426730841,628.8120815976914,616.499008325983
-244.62686034476607,538.8149877888984,614.7716090611983
-146.79018829059873,499.8291975343263,667.3889656508595
-151.5247306674553,535.3907807457185,745.6899144967956
-255.3614129187847,687.8567094777524,829.9623214859306
-340.957411552365,746.2344429545259,793.1617830757701
-335.21335012466034,737.958426169997,738.330622587734
-259.6697139186165,675.1897946801406,708.2775463588484
-190.90617081266285,589.5428102359114,709.5960394222288
-215.00818322260915,585.6128239510945,681.776141699765
-269.6935242921895,616.7396613522457,653.3790846007557
-360.46050384178085,687.3988568981254,687.1031391963617
-394.8687880162951,707.0447094573582,690.4457689425034
-317.8812336526745,694.8438049690772,691.6408763441135
-228.51636389592778,721.3768208307629,708.5875400875938
-159.48259599353503,790.2729270444037,685.841750240908
-214.95923684438623,844.3729510077346,629.8838033375313
-271.3974700840757,825.8518454314165,672.2713668785979
-173.64135561073354,755.9492793155666,728.9166025095217
-91.89080878791434,692.7452290027686,655.7866345795966
-107.64838145544097,579.7871852263515,557.8163797015291
-171.9853364808574,611.4820045581316,584.2178521717407
-189.37251762834407,685.4787312690879,622.9538119541332
-180.95883915506317,805.314760902041,618.7505417242382
-244.83284301978765,883.4688706133084,648.927003614894
-278.0694732655902,914.994417053734,683.6452815181536
-292.5280294494043,876.7346647428022,718.8785161089669
-228.8171801787563,756.0583889503552,692.7676627594541
-153.32656921578726,646.9334584185222,670.7193588024454
-135.3948596105704,611.693085814218,639.7097887657866
-142.04035017054755,685.3951145396237,655.0595769197433
-163.225974211377,767.1590196448329,693.7129396888846
-114.77619778415668,771.2174901724851,757.218826000724
-53.502164347662045,755.1987681828148,750.341859860401
-55.52028470476667,758.5536345235122,691.4308148042401
-89.33009743388415,824.6924280972606,702.475361107004
-116.0324881585455,882.8978295340407,697.9539394186598
-160.38606455823347,952.2466897462438,626.4126893485544
-257.70268134378205,890.9535876165664,609.4629664564353
-281.7200573080512,724.8458953873138,617.513625957896
-183.599904146676,603.8341329607971,584.0699933208589
-165.5866172444209,580.1991505763946,553.0216740681069
-234.83962413260392,576.9003686274111,555.9207272616031
-220.0884093956652,566.0261149322145,650.3688823400448
-89.1253384183182,557.2759301086509,652.3603881039908
-89.69831695839049,572.5798310330237,632.6768060448778
-192.84261190110794,623.8134327216736,646.6571153248052
-258.38079262541237,716.9981594122356,625.738656931776
-264.42567033594554,798.5744367342569,656.7696410089073
-300.1432701279234,786.9965788521056,628.8008647193487
-282.91924357451325,689.7880519851326,590.1413836529294
-319.8350099167402,623.84300449185,538.790514599787
-372.882686748278,597.4517291837682,569.4819331779967
-359.76811653316884,605.4758760636915,612.8219116619846
-272.6466224449736,609.2722795246084,680.8329042027605
-170.68417859309756,608.9429111878164,733.3809200899391
-139.77556046152358,639.6200537390445,729.8159922093682
-156.06348753142,709.034175788878,690.0919274166
-222.30935130753113,720.9414020078214,665.5116681027671
-197.7423483044669,713.4016203290626,709.0759841536102
-112.25647902188821,678.1673660220362,737.9472092916542
-178.50234279799935,709.3839384499295,709.3778201526516
-286.75439625152325,717.8516618824982,695.9532562087973
-281.2825990526836,651.5792854848496,645.2386900725529
-174.7477477018146,592.475514064436,619.5622358297686
-102.13171674323038,584.0363426858306,604.9792742679714
-110.80134398596871,608.0221074474974,683.2618682220739
-51.30936660327431,615.7240240041198,731.2221808670648
-29.907970611778744,680.7656029327039,668.5290083769687
-157.67361943171215,770.4210918101493,630.9912151448252
-317.9934024361021,833.8433613925246,659.7727052561273
-345.54001621348783,810.7376117226577,647.6645949432274
-299.2438804280769,798.8079517470289,652.3226586041105
-295.85230430371234,752.3190895973651,648.605793007806
-346.11105729275545,748.8031080950173,643.9405913334319
-430.69549744306164,718.6103307449538,654.5486990970413
-472.6466224449737,684.2907618809686,673.6592006444607
-509.40841163904093,646.4144228661164,732.1052551075037
-440.5908235737994,645.741410165551,717.4407162486681
-300.14021097928446,632.5218091805051,660.7190019017709
-208.9398520391775,681.6904855378749,614.8246343042732
-188.33750567217146,755.2528131421027,638.4320843509253
-240.62345449261474,817.8766449297162,672.7598109446142
-263.55483269006237,864.4450449439921,668.33424258029
-220.48405928630063,806.3609897365565,700.5725706535871
-98.61685692871674,735.5325212993225,675.1643017748162
-115.22997149893186,719.9023111867967,643.5714540643339
-268.4973971743664,767.6546017243403,656.8124690898524
-378.6654973920758,761.1906206502731,702.2795755941122
-315.4726639576206,644.2465061973254,660.4497968215446
-157.7776304854359,523.2327043383827,678.9188968710008
-91.38737489356713,487.1949136555297,601.5428306302357
-230.68530028093184,503.5695166035293,579.7780077804348
-432.41066011329053,552.1192252196214,639.3865387262725
-459.30261608194445,563.9336572631838,638.9439818898402
-312.6990358583207,542.5400111149067,539.1718884634407
-138.2541438717605,417.88072379456804,597.1498931847268
-99.53776264065712,430.2111322418972,711.5018890242847
-349.134515864235,704.691204437805,899.1439482392051
-652.6724212651619,974.73245195862,976.1029505488624
-778.7103649054469,974.9996176064202,895.7217806284511
-627.6149347636554,863.9168319456696,721.7520763971387
-367.6688777513218,713.6208593148529,584.8663916831946
-257.63436035751255,623.5034389929284,555.4220860334569
-321.65214420826686,782.8453141490724,1009.1815247816534
-526.1980390857225,978.4350415279429,1068.254704715678
-651.2611340264006,814.7552936017908,827.5282588855523
-410.78655810088054,435.70740262984816,620.4799804214488
-176.16515323785393,565.0869563000618,584.3116660633347
-431.6305772103624,1069.8046733594042,555.234458250269
-777.8803159080829,1101.5280447451476,338.0114514130718
-515.089250661541,657.5711379523079,677.0385401742695
37.23300005608439,473.12282991643434,870.3910101818665
165.48566533933607,568.9618779093779,883.7625488826461
-79.13925754462534,713.2608994916716,797.1947606980978
-366.89287371324565,661.7407575471748,840.1533653184318
-384.6308372379967,530.9692912462461,910.9726563097491
-284.0032019089088,476.2380629470819,936.2116522971659
-196.02922506666397,537.1803826994948,905.9271004879342
-237.10339412541492,679.7305909765313,802.7909632749207
-324.52672421265163,807.1645261123831,699.011385131518
-390.9367622990522,834.4776248769967,666.5273054508931
-354.36260088817284,729.4162634538809,632.1078043980361
-269.22955341528456,585.961566895933,673.1136524705175
-226.02315775519676,585.8392009503756,697.3084590558449
-264.4215914710936,586.1706087195935,700.6572070992644
-321.0780439803603,575.3187887810823,735.1664431788635
-359.9118965191987,533.060729199064,734.7279652072829
-364.66479378788887,540.588274283267,707.1589176732116
-406.472138803771,540.0651598660094,612.3436647580979
-487.44882299256125,532.9526392804883,611.1546756537656
-481.2785201878318,591.4323443785595,665.9939938715057
-441.6829396378988,703.3961648473231,674.058929399948
-441.075188774964,725.7238710466878,575.8765735495813
-379.9911284689472,663.3141796637996,573.0774525449568
-314.32140435316853,763.2575854139794,558.0254215251896
-377.45101538241914,844.4637057506897,497.93660424303926
-395.4887754737857,748.3738075693535,552.9360179062168
-329.316331265009,815.6791564907487,781.3279764241612
-238.8318131064125,807.7365869078636,837.655060596636
-263.9137727970306,664.5327405383083,810.2899563051603
-299.38154211682894,494.6796306587877,822.1054080649355
-251.7220457546665,463.7832491217695,870.0188137641295
-180.8048620069035,471.36076030040846,914.2265707453618
-133.34013144141986,625.7876033099989,918.3411256647277
-168.48669015413012,753.3806141750752,878.1377942518598
-190.94390031254304,725.6963387089373,791.5536906079038
-252.99873045331486,663.2846078936233,680.945072986188
-362.77627936145376,609.5802338209278,636.3110746279311
-394.965661056528,493.6191257972907,620.5217887861809
-311.4315286055891,405.82257957610403,826.1496025656062
-267.4909372721572,490.8465174142037,853.9929537609685
-285.6694182009147,472.8311910795226,555.509781627773
-545.9662575905126,322.68409701580055,410.8314256142516
-751.9703466525267,246.57859717640582,372.68078293810834
-814.7002289262899,371.36228987472794,426.26483049767256
-714.4488688797909,431.3980819138035,305.9005878663968
-660.7526525367991,343.0906578699149,428.66626217923556
-569.320818016346,282.31557157643033,634.3205885801982
-537.6198803872883,251.40083514757845,666.2968495867601
-547.7344455038163,224.81989262388282,713.3312599103671
-564.2558875864847,234.3776926881249,901.4332111373405
-452.43278795511213,269.2866575232113,1008.9551477823723
-278.68334242580295,381.02512070890674,1109.2982822880394
-63.05659934840134,529.9312201414348,1076.697954959135
-123.62223593174022,607.9191161099866,1091.2289109940705
-335.21029097602144,679.1585301810507,1083.8971514227592
-270.57455910020246,728.6382199833787,1049.3797576134564
-54.77262877741125,722.1150953689589,942.7408952088634
2.710619834500059,709.0066434511276,825.9069101069174
-49.31928844202659,647.1180270530712,782.1661831512291
-126.5794129493762,659.2506105550826,773.1182411934759
-264.6234952812633,718.4216832455528,778.7001677433171
-403.8922567849368,680.7370508787405,768.8925372068954
-436.38143504662656,560.8398382730087,745.2626534035579
-364.0091162629441,459.6533984592088,742.763328965549
-251.15814268888974,415.5884017477936,673.9589972110763
-138.45502796571716,453.5840475595643,695.1415621032668
-49.272381496229606,506.10860997384435,590.3361494496082
-113.46484273426708,552.2905375434018,506.8020169986694
-308.1929099131712,635.3596794012227,538.926136856113
-437.793742001601,702.3784880667711,564.2314143973733
-483.0803587361638,683.6656758424131,595.012568002325
-474.8808206676083,579.4588366057727,630.8086859427023
-368.262352587275,435.41474407672354,625.042190758312
-237.41644700279917,416.04625432742074,736.9570648488526
-58.5496576302815,469.14797611824633,774.778339188204
-42.64595962943513,519.3567630128535,778.7725675944386
-153.72425853884866,602.4840286948144,890.6415544553951
-181.80010503076997,703.8224062243479,948.7490631357294
-194.95138502954632,754.7133832654373,1003.3252945705211
-184.78175523751742,731.1038937863593,968.2348202495245
-252.66018467060618,626.7440971177722,920.4753916984905
-262.24755650502465,533.6460463053132,885.3237344047153
-261.59391841250584,568.5672477349553,896.9903075973957
-315.4339147415275,603.7678514069535,892.1395175722598
-358.74840032019097,588.4150041043579,867.9956967975814
-360.5747120576344,541.6141087935229,824.954495163996
-344.06040798845686,478.98415870863147,758.6953750771162
-289.9756797683205,497.9111113377148,759.4418073450161
-255.13197677086472,520.8557458459311,759.8853838976613
-255.7601219580591,586.3510984892905,728.2588855521509
-313.80848709804064,609.9065430090807,715.5358863628253
-341.1929659975629,667.9406321220805,691.3818684260171
-309.68271530033195,629.2546384341239,719.4566952017254
-274.2088276832558,567.3955938062438,755.5189590736899
-251.60477839017406,513.0202464654087,752.1161660709826
-264.5837263489571,505.03076993672664,712.7020950069597
-278.24384473800944,496.8689613680514,653.6554276944727
-226.612553726298,476.5613129865959,591.7035888912117
-127.44005343312958,491.9763629781832,671.6299653806346
-90.7971631494955,557.8530894851964,715.1269801614211
-177.29193965319453,585.1101038580963,658.7947974078814
-319.1793323917954,581.5258013694789,566.415646525572
-373.23652827418135,547.1583058434837,569.646107488286
-296.39377361280356,539.7786196101625,676.786670269664
-301.64633182585294,559.764037668317,743.3598629501411
-363.4921201429642,533.1586219555098,742.5226759392862
-334.24360000611836,424.3916118144321,719.7799452412395
-135.10729963851063,259.33626671697266,609.5057945373803
107.55252813142103,222.6764491442032,617.1893562021689
254.00926922037598,302.65279172806214,603.4140098810501
211.59111419292014,453.58608699199016,570.8728260924985
155.4771507089577,578.0373522048815,593.1597436433441
93.19359822161493,644.0078926034885,560.6073429764497
-382.86570847333195,878.9831389924185,890.2010370513887
-1264.6826388216161,1661.5765832368852,1957.549214053729
-2350.6498141567204,2055.339998878312,1771.1960761320124
-2330.5104189504063,307.3363482942697,156.52439925968605
-1036.3171929252092,-969.6318314613044,-23.862175156653905
-86.48396751184147,-1188.7647667654094,532.7017890920957
214.06188657696566,-642.4507859462713,1312.4359490753725
-56.865188418063255,80.6382403777029,1458.9997603666902
-419.7202918427802,607.5000127464527,1216.307301677943
-537.2048558886063,973.8045102048101,973.9115804071728
-420.4810001376617,1261.8376305874076,837.3267119760573
-296.0695038570766,1198.3806906537911,772.6858815191733
-389.6672156138947,1136.1474101757483,1085.4675143907452
-414.51158142688894,917.634462329134,858.2003028557153
-311.44478491635783,527.4074225143144,578.4880667710177
-43.77815054070453,179.10091621501738,371.7426440221687
122.1497657202001,68.74936905059323,292.18336536941774
103.74286835973551,216.86304701401602,397.3732110353689
-52.26218943268089,538.2459861420567,719.6953087955623
-180.85890696619134,959.9404485731623,1034.236971850734
-215.7525760580831,1193.863347830299,1201.6845711838396
-153.10529079757106,1096.0929573299752,1140.1650920548814
-38.597074434184975,811.0108956677358,946.6076590884758
16.055635716580078,530.7215002064926,803.1611202602317
34.62762513192579,270.6540969648147,725.8238032355596
37.183543819754966,118.688848893353,608.6359766077102
-73.80420428994611,169.9479434873275,618.5751505356061
-229.31684112311547,291.5083132364263,662.9307663677199
-416.61219682562347,451.68635568721226,671.3587208679825
-493.42028113576,573.0631765179752,763.9897416548976
-366.32183263397803,723.6752611748151,843.8773689282274
-133.88771904778903,741.5070385911602,878.6965987365717
-13.030749542402353,720.6293688466501,813.8579433343701
-41.19408768539716,603.6862741099153,692.1680696262231
-84.98834974226675,436.60271346484274,574.3368020679845
-70.77207813065625,324.188178429943,563.1556137926815
-45.062279167707636,401.896672156139,622.1472164296678
-93.8600847384173,573.529186827306,734.6514864913096
-159.0543151840843,760.4819178822535,815.4609372211714
-117.73133536936672,840.9874931806479,768.7130671534113
-58.6372512529763,747.1827790325952,714.9699438646226
-1.5150637577562165,650.0180999627804,716.1538343878899
0.785353816032998,583.9466076590885,685.01374067597
-193.00474677897145,523.3642477298569,662.6921527738831
-371.3541321450241,505.1500767336451,632.6105244910342
-420.92967527137205,463.1856954209644,655.5571984316765
-436.58741772164814,389.8670799916384,663.4192104337363
-327.6725487296886,334.2262648304977,594.594484355004
431.5296253052776,309.3207160447248,1500.8693080715639
1634.09523129713,767.3996726710957,1430.9881559961866
2065.2720347927175,1131.7116446492942,1016.2858876374706
915.5236497682696,1702.069514054239,620.375969367725
-533.3013822253267,1860.9005113876808,237.07280263902558
-1932.1990689990978,1445.8760127056642,190.04655004512247
-2284.3478659888956,353.3020960266758,145.28712659266927
-1203.3671029352533,-666.3437565325571,427.86782438447386
-304.90432512631736,-651.8219779435384,676.7550590670618
118.92848220340281,40.15907572922456,982.9646209459909
-33.33176976847344,708.0603468054841,1119.7197819846738
-199.81033278438613,1088.6082403267171,1127.7143570944208
-171.357191293663,1176.5995523445827,1041.4973512871368
-174.90682343103916,1006.7800931000903,1085.192191013241
-125.05187806233526,739.8612166234138,1133.9346259935862
-45.78739936675624,483.93488092263925,1139.9101630016366
-26.07220610504097,328.42611901107927,1074.0161013190032
81.16053902199019,279.09020919478115,844.2312104541307
158.91869292775823,331.73815727083155,743.178353464231
184.47176150877215,497.23503948851044,668.4351944853748
85.53267425675436,656.6605313741186,670.3400243712175
-39.42508399912305,777.9149862593241,707.3047370916674
-153.83030902499834,833.175447273024,728.9522925769759
-214.05678799590078,701.7085345148446,685.3237344047152
-195.3215420148573,503.4726435632964,599.9306592975175
-196.57477324060716,422.0585011191386,580.5642089806407
-164.95745234101352,476.0851055151352,592.6294912125956
-172.88472618070392,580.3612854542581,564.6862078283614
-181.8827020440212,654.4691612324291,623.1710115074976
-131.46181417711452,681.1979626070066,627.7607541821112
-121.38293912804069,708.7659904248649,690.6119826852188
-80.72032753284762,681.9688680640179,758.0305201062546
-43.884404970096824,659.0701207853855,825.3776773923818
22.578862302621186,658.8039748537982,853.8461146262996
-5.703639877022225,627.7893062360746,822.1309009702601
-46.80130319732019,611.9959415294724,750.9251375342243
-87.43515879530727,584.7338285755075,695.4637924265678
-101.26791513921677,616.1441470838666,734.3965574380651
-141.50194001009518,651.7689527004636,788.6189473469535
-212.61898813560188,699.2041114957708,838.4137294590917
-318.9070681629303,715.8887081725157,879.93555393534
-484.4151672589519,724.9397092789078,881.3509200389533
-552.4047457592552,663.0327379890177,821.6720286744201
-468.1353979187593,526.0879097347209,725.2802944940423
-294.0739192282788,443.8131268068097,763.4870215618995
-232.03438483070164,362.3337225250213,792.1634809032647
-171.68655963045487,292.01511219427636,769.7572565555007
-161.60768458138102,280.96546731044754,840.5887841413735
-158.3649870241112,393.77361280355683,910.8992367424146
-202.6991888157526,491.156511142949,945.2290027685295
-247.6054514028746,565.2246179888137,967.8534463858709
-240.30836218280456,584.3718293199004,952.1997828004468
-200.56594249820276,594.966680772741,874.2669515073956
-181.5166239235621,583.1777416345033,870.6673532755835
-232.53812463991272,548.5746916633101,850.3974343940082
-238.625830431391,482.39205029240367,799.5095165015578
-259.8654994315082,498.4903101466862,850.1567813677455
-303.536885684714,587.3188091754065,794.2579780047214
-323.4784559457103,601.7498330214702,660.4732502944431
-304.29147568231764,551.3768718165735,668.7798585653613
-271.3648391652603,578.6981283108911,724.1259757409514
-268.9287371324561,551.2799987763406,688.9335297986571
-244.6074857367195,508.9209872892374,732.6110343491407
-208.64413433741393,478.07967042772003,776.4251808721634
-185.19576001998647,485.7071477007949,784.5992260353944
-204.49083020195482,501.2965691648015,780.3337531165078
-200.61182972778678,563.0638393335136,768.4091917219439
-200.25798820188342,594.0479164648478,772.235166953037
-214.60845446712182,629.1903963127063,795.4490065414797
-271.75641019104387,645.2488872346827,810.2369310620855
-305.07257830145875,587.9306389031933,860.9514971983298
-295.44645725094705,486.94610289956313,826.1149322143648
-257.62008433053086,443.9905574278678,815.0530507359803
-238.5697460396772,412.891252364467,815.4425823293378
-250.26793043495996,451.5660291740809,803.3630240704014
-256.8308239816859,517.5641019104384,822.6652322658604
-267.3022897727563,614.4748716432218,833.9555301759522
-274.0283379135587,676.5704904325128,849.344067546002
-261.9773317085855,688.1901566793963,861.258431778436
-257.8515599108768,707.5382521044394,865.1802603335493
-231.2594005088384,691.7866957625694,857.7822192083944
-236.0938750745668,668.3984847017076,834.241050715586
-237.67545492089553,656.415799483004,791.08666058236
-237.5388129483565,637.1411236252951,799.0037372599206
-281.3172694039249,613.9476783611121,763.1046279820328
-328.02129167452705,567.84630837238,758.6352118205504
-383.99657375352444,595.7844931755493,804.7977647820612
-404.00034670351243,588.0244527947873,784.9020817506489
-421.5394655667328,537.405739982563,733.7898262913432
-431.62649834551047,495.38323484574255,784.8001101293511
-471.27714357094425,414.30050017080254,768.7813881396809
-425.8161553639623,296.89445427337574,659.969510485232
-301.9328720816997,280.6381384060816,681.5028577546869
-268.86959359210334,346.61377738575356,732.7956029836897
-288.52870246210483,432.62174136937693,814.6278290751684
-338.0247077238405,479.5021745448242,821.5771950666131
-327.71945567548556,475.23670162593754,786.424518056625
-270.3543003981992,490.12761748405427,771.5356416309343
-169.9469237711145,520.30407937471,772.9377514237789
-147.92615215185617,563.3269261164619,843.7652001447998
-188.24165234815152,606.654668005894,894.0351700121857
-225.38685483829855,630.4731993086325,928.72081699663
-237.13806447665618,622.7906573600568,924.64603100957
-229.51160691979425,591.8147379584262,928.7891379828994
-227.53947576389493,556.5560104622884,881.8424232536086
-244.12515996798095,506.17693096011385,858.21559859891
-332.780307240495,464.3736648090837,864.8784243345078
-383.829340294596,445.2121774510154,840.6305925061056
-376.83102792492855,402.49320614073105,829.1057598670292
-322.801364380293,413.68357186195084,829.8766653240405
-369.09750016570393,425.61221212136667,825.2186016631572
-415.3110389378636,429.83791610794725,824.5119383275635
-436.4324208572755,398.62644226111877,777.2052637750915
-360.45336582829003,378.44829783871154,750.939413561206
-240.04221625121733,377.76508797601633,780.2175054682283
-175.13422014653324,427.3130987646138,753.5509067826424
-222.80289395461247,482.375734832996,811.5197340580117
-248.93312191217186,525.2762156291905,826.6818944287805
-212.8076356350028,575.5757572667527,858.451153044108
-182.17128173229392,586.8752326227611,851.0225204325637
-156.0145411531971,567.152901347555,831.8579739258565
-135.783371487715,504.45870914124606,761.7290308107255
-118.95091596008831,473.8009411980646,809.1794853492274
-167.70966639984096,489.9695614710427,843.7162537665769
-241.22508705827173,486.5983796709376,834.7774214436124
-310.8604875263215,487.06540969648154,825.8834566340188
-365.59885383897665,471.83594805565616,805.4921915230992
-334.66270336965226,467.7632015010223,809.893286698312
-269.0980100238104,436.37633646556174,818.8310993050635
-220.14755293601795,370.0499151086253,800.1651940265025
-224.5190763410543,393.12099442725093,780.3979952379253
-288.0382189636624,444.3311426430025,826.3698612676094
-302.3081276480756,510.38937863592565,845.5558218147892
-302.3907246613268,556.711007326661,833.6251421229473
-291.9212983026824,517.7292959369408,810.3654153049208
-287.0858040207411,521.8081607888525,837.8967333391118
-317.09605216868147,560.870429759398,853.0140261965096
-341.8618998332765,584.804188994203,911.4315286055893
-335.00022943614795,561.3609132578404,891.989619288952
-318.76634732553936,484.2091845839304,931.7391769870446
-304.5239709788766,433.591491487919,908.576323209251
-291.4552879933515,429.0221431375649,842.0683923664046
-244.3158468998078,537.0243661189091,846.3348850015041
-232.02112851993292,602.7715886668741,854.1469309091281
-223.33314638536098,645.4385544502965,873.7560736846935
-200.6210071737036,625.8487862827776,866.3131650461678
-193.64920742557348,579.262031376668,854.800569001647
-209.6342787802155,517.4468345459459,850.8450898115055
-249.77744693651758,482.5837569404435,811.1149067214595
-288.8845834204341,498.18541499900584,790.8541652858011
-330.56548362590695,560.4808981660404,797.8687931148762
-424.0316519912509,615.0143015198871,757.038336231027
-493.7119199726717,583.5784901062035,642.2866116359818
-447.04970606680166,443.3022489841078,572.8153854782215
-344.5855618381405,295.35060392692714,559.1511882243173
-283.23739503296235,237.86512213650946,674.0783040079947
-332.6324483896132,305.07665716631067,790.8500864209491
-453.49125338418327,403.19171174662097,839.7281436576203
-502.46822309351313,407.72027144845595,870.3767341548847
-468.0038545272851,337.8839868864495,878.9780404113536
-327.41558024401814,305.38869032748187,830.1734027420171
-265.9246531690231,339.6287213268548,819.2053351552263
-234.30835198564242,432.2740181407515,823.2903183044159
-267.87231113581095,494.61232938873115,842.2009554740915
-280.0324269755727,486.82781581885763,826.3464077947109
-281.92196111822085,475.7638949080472,885.2248219320563
-290.6660276445066,502.5967073363484,849.6815936124977
-292.65651369223946,509.821396705297,790.7583119617811
-242.07145151504338,521.143305817991,803.2518750031867
-253.25060035792043,556.0849015718926,806.890222451092
-274.0456730891793,590.6073939622604,755.4424803577166
-301.1293357058731,613.9599149556678,747.1093594652609
-336.73782586306237,598.5479241127194,723.079746906436
-323.24086206808647,602.8062590181153,778.2127433935137
-260.985147833358,571.5856077253701,802.7981012884115
-208.87051133669502,490.6048446717279,878.4192359266417
-187.1393391219224,447.5972936731708,847.4932826194472
-199.5717191905493,401.1247469829147,831.7651797504755
-135.32653862430087,439.91781087323403,899.3152605629854
-118.14126128698386,517.4804851809741,934.632111883263
-101.14769059770667,587.2719022296096,966.0485486888999
-62.69582375224976,633.2967935023684,954.6950283736038
-59.08827173397644,656.3770502669108,942.8979315056621
-75.18347243962006,637.0156985310989,927.0229895020217
-116.36185649533735,551.6878852615318,867.8254041900141
-103.07291480780898,462.2118664375705,825.1553792579526
-77.13439349828944,430.8484548750083,802.1016351149476
-87.30524694977389,493.0766367719864,829.2118103531789
-131.7493741491743,632.9133802062887,851.6221135657946
-147.6651048013338,761.3456175146457,921.5940203841272
-142.17699214308658,819.6550300051496,956.8007423534032
-134.33435474907336,838.9388833087753,956.8527478802652
-84.81142897931507,815.2365996543164,945.9009957528822
-41.050205727745976,752.466948448247,887.8995375586975
24.277097683714626,700.7143112071911,783.0880066077611
71.0468916500538,614.5319757511486,705.5865152727996
55.64234473546012,571.175681807753,603.4619365430601
13.82684198987422,575.5084559966962,618.5190661438922
-21.86434715218755,625.7274400534332,578.5686243518429
-47.611365756909855,626.244436173413,613.5030820922537
-42.39439563969348,626.5564693345843,652.8263984133217
-28.924760239225424,607.6366547189917,711.9617810363377
-37.50332682414484,561.1345362585593,696.2918019915058
12.646010615245778,568.4846507217043,697.0178399351462
5.047462691133059,603.329373435373,692.8614766510481
-43.68515242208094,661.9865091545023,719.4067291072895
-100.77896121509384,705.0909331932924,730.1790111811883
-127.67152901347556,716.9053652368547,729.736454344756
-128.97880519851327,647.0629623775703,706.4053473918209
-99.3221946332336,557.7072700667405,691.4522288447126
-134.0304793176059,534.7973059097654,694.9345597120323
-184.3442969821499,581.4717564101911,678.3244023188348
-217.14448868879794,616.9690975001657,724.8091856036466
-207.55711685437944,671.4474361785116,767.940122263974
-182.88202393273954,679.3828677479058,811.4534525041681
-155.68925168125713,652.1962137937013,823.7267568435705
-135.63041405576828,648.3834948733768,847.5870965110411
-71.18445136718452,593.5451963718498,829.1149373129458
20.8363712378845,527.0627584343279,830.7169114835342
46.50222043205377,495.6310258854961,799.8103327843862
12.147777273584763,523.0134653525924,803.1284893414164
-17.972600225357283,604.5295794180481,806.3273391015282
-16.06522104898207,682.245211157735,845.3396419776376
11.2636833169329,674.4025737637216,857.5487041956225
40.565840526581454,592.6814967394574,830.7913507670817
27.53437718283002,519.0263749598487,803.3722015163181
-27.012996283134406,472.94947816022807,794.8616500028043
-92.79488918234057,492.69628262454563,782.0356594759679
-169.83781413632587,516.4699464139131,776.8769151545126
-182.35381093441697,574.2480867574554,737.2487036857643
-166.0944359184839,597.5118924403339,757.036296798601
-145.3829799166892,647.9307408748145,788.5730601173694
-170.09478262199633,679.6010870174831,846.9660893373375
-216.18187658374674,746.645388588356,948.0893067459327
-264.9691790774628,778.2555714744587,978.6491819326683
-313.9359516246629,720.0012236594557,911.393799105709
-300.7826321934606,553.2531496484529,880.7564254867871
-271.8247311773134,397.07341446875336,748.2799936777595
-200.6515986600929,280.13847746172246,714.4182773934015
-166.98872703726553,315.3686529038969,789.3714979121311
-195.2562801772267,486.17315801012586,827.6179939122944
-215.08058307373062,645.5160528824829,889.5779904452592
-198.68762523389745,765.3622796775658,893.3438024197866
-191.80861966114833,827.8810806952426,967.803480291435
-174.97514441730868,777.9139665431112,1019.2440843713196
-121.42474749277278,637.3725992056411,926.3295824771967
-95.43167136585889,594.4374480582055,907.24049497025
-178.64408335160329,559.7303870332887,847.2424324310546
-217.77773245705725,513.5352031529626,838.9623367816738
-283.88593454441633,467.54804138008393,830.2784335119538
-257.83830360010813,470.9691892746249,803.1845737331302
-229.32907771767117,470.1493374393907,736.895881876074
-171.14611003757656,523.864928390429,737.58622975226
-185.52818750541726,709.6143943140625,728.8951884690491
-265.38726272478374,706.6439609856577,759.1053009947333
-273.25437330790845,567.6352271162937,783.0043898782969
-225.09317656896087,447.0435877695238,752.7351338122601
-188.66483457653737,346.8054840337934,824.2621078553839
-219.27263642528285,262.1364074378101,847.6370626054771
-249.7458357339153,254.73938602886818,858.9793660424305
-273.3848969831696,258.64999770563855,842.9137371069631
-272.34886531078405,289.80538716075324,866.3723085865205
-295.959374506075,258.9650900154487,858.2737224230499
-278.09088730606277,220.84299939326888,937.1620278076612
-321.98661112612365,206.34059541229678,1007.1961373149853
-423.1587749129418,241.62583552997205,970.2406020404524
-478.88014765490766,241.59728347600867,918.3859931780986
-485.7948432951111,160.7552018273315,957.8010839583345
-493.4987992841593,6.339912202434063,989.6039932086902
-329.6171475478375,-46.596748124996815,839.1764771863991
-263.3743429203653,76.66236686330195,835.8287488591926
-304.7391310998149,267.47666124517553,936.6052627553753
-375.4748053616679,349.76368076764237,990.212763787838
-343.6290680303672,314.0277260838309,916.242549698419
-337.71879285994714,174.48873978371822,893.2540673930446
-263.15000535351015,160.683821692423,713.8849658140141
-234.69380471414806,209.18356421407924,969.2484181652247
-409.381389159397,356.0808227070407,1233.0102532465216
-463.82811663514053,176.73211545226965,1032.6462145584885
-273.4664742802078,266.3529339784738,838.9623367816738
-173.65971050256715,327.2738396904142,816.7039712847916
-220.41981716488303,350.6722479134057,796.3014892955291
-257.799554384015,276.8876221747488,733.1963514553901
-262.19759041058876,238.16083983827303,725.4118378855165
-271.95831400121347,281.18266686381185,768.2919243574514
-336.13211443255346,355.3996522767714,790.62778828652
-435.17715019909963,364.1845074515763,820.5115916240511
-464.33287616056464,363.8449419526546,757.2820484059288
-483.81761355814683,313.73506753070626,761.0835504479104
-525.2038157780689,249.6581401395992,913.7401661117711
-499.4549616841633,152.5944129748691,898.7544166458475
-425.4735307164016,86.56860395751863,935.4070962051261
-367.2650701309826,163.46254837278786,932.0950579453739
-329.085875400876,228.72846486822718,908.8995732487649
-305.66707285362486,329.0338698740141,897.1381664482775
-244.24854562975128,308.19189019695824,784.3137054957606
-190.68795154308557,219.85081551804137,903.1524526724213
-167.1947097122871,259.3811342303437,1017.1852773373172
-43.54320792523441,391.68829314801695,779.1896315255465
-62.42865810444954,388.0713597405843,790.6930501241505
-345.19637184971424,161.1508517179669,1124.736785752525
-452.2298644287295,59.798504076315574,946.870745871424
-374.823206701575,4.224765847664595,857.9514920997487
-478.44676826439206,-0.597504754426843,1091.8917265325063
-520.95465831859,9.29264325738147,863.5946016223686
-534.4964896269369,-46.178154619569376,706.5939948912219
-564.1335216409274,-25.33535916954312,847.3658180928248
-585.9890992336834,-7.399162812989146,1102.0786915001556
-403.0877006928972,1.2439722025360345,932.1062748237167
-392.8905385631179,-18.49673435882794,897.0035639081644
-466.76795847715584,-67.30575680788037,998.1023081276483
-515.1453350532547,-54.90223470808075,1044.4341339805133
-454.55379767810626,-51.78322872744516,1013.9313629017046
-438.07518367638295,-74.80678927054602,1049.573503693922
-429.5778884736378,-78.52987513574973,1073.2615113213994
-333.8948570612799,-133.5043057517093,1067.0310452601043
-256.11600291638837,-168.67839680216997,1095.7870424660819
-218.15604717207205,-76.43456226132268,1060.7291990639008
-288.7744540694325,16.471577959853775,1004.4102726211296
-407.34399616586705,112.17184257621106,786.4571489754402
-473.1452636731198,123.1929354060765,663.7710125272138
-515.3513177282763,174.7671223098612,768.9292469905625
-459.413765149159,263.6731197707678,808.7134750398965
-358.9533632789995,359.51522691235033,798.1216827356948
-334.60763869415143,456.19146191614874,813.8579433343701
-374.92211917423384,422.2818189697807,880.0874916510737
-484.67927375811314,280.75438605436113,965.262347488694
-540.0977907848246,168.80688104500518,945.1871944037974
-484.42230527244277,156.24193786869117,887.1938939393168
-473.02493715998844,132.94040268593253,887.4427046952834
-454.9280335282691,24.364283419924238,876.3063839333514
-417.29336725589275,12.255357334053935,853.363788857561
-395.34601520396876,38.81580356186874,814.3565845625163
-409.26310207869153,174.4765031891625,829.389240974237
-315.31052907975715,324.7459631984419,842.0632937853397
-300.06883084437607,364.19878347855797,940.2742016896699
-388.0693203081583,260.76998771241966,978.5502694600093
-434.02589059464754,63.244736989695774,915.734731024356
-368.9516807472481,-18.47001779404792,920.9097908052191
-322.0753264366527,7.369070987544167,823.4096251013344
-275.87096511040977,85.23716049823335,918.0301122197694
-266.5028322617816,205.313741185828,941.3122727944815
-368.55705057282563,276.1299730285062,982.7158101900243
-422.4786241988855,280.41482055543946,981.893918922364
-450.3250345428867,253.3709268710518,961.9452106478768
-426.18631234927324,237.00448165275606,883.8696190850087
-320.3876961041742,169.99179128448554,838.5840220666588
-211.99900067811132,142.24939199420803,859.9246429718611
-165.78342247352563,80.09503755104956,872.6007352153897
-216.76005567650526,116.0141332667119,950.2082770365009
-288.99573248764875,178.61553129763988,964.6138079772401
-298.23028251237685,213.04930837747858,913.3383979238579
-277.31998184905143,247.0731595397001,842.8943624989166
-232.76960022025875,277.1874187413643,788.5149362932297
-224.4640116655535,342.93056242447733,792.3429509567488
-273.3328914563078,401.5530277923654,814.9602565605993
-322.12835167972753,438.0201190008821,955.3925142632805
-343.9849489886965,379.5903799972468,892.4688859090516
-311.1276531741217,255.28391448659843,865.9073179934026
-301.6646867176865,92.46898788067283,839.1265110919633
-329.3193904136479,34.57806692397506,831.0585164148819
-353.3948902020568,73.13598425558169,795.246083015097
-405.69919391433365,88.41622776381334,727.6919233377351
-486.04875263214257,73.73731090637476,746.1610233871914
-543.1426633967767,116.84214283164995,756.9343251773033
-529.6395813045231,193.4819739666451,686.2353606991175
-432.7777579499626,242.07858952853422,581.5574125720813
-326.7711195974161,268.8002528896208,634.0748369728705
-238.81447793079187,339.4543498544356,823.5360699117435
-269.5538231710115,557.9734159983277,1002.8715208557459
-195.8059072160218,659.8206319181372,776.0040380762035
-221.24986616224706,548.4176553665116,842.7169318778584
-234.24410986422478,472.9015514982181,1039.0092437274707
-259.73599547246005,445.45181076106525,975.9255199278042
-210.31442949427176,440.0381373863654,847.1710522961461
-90.0306424722,415.15502235727797,766.6399840924271
-38.02715504275161,434.55716274160903,818.3742664416494
-88.68522890079691,483.1384825603035,1013.682552145738
-198.74676877425017,588.6954260629268,1039.1520039972877
-238.809379349727,604.0574508114393,991.4017528921702
-212.83414825654023,533.0882615368143,866.442669005216
-153.30413545910176,462.5646882472608,820.4769212728098
-114.47028292026332,504.82274782927914,820.9164189606033
-134.58418522125294,558.8258987523773,785.1111235743093
-196.64921252415454,559.2001346025402,772.4064792768173
-246.2798203260033,567.4261852926331,783.4092172148491
-259.97664849872285,579.5618279432834,830.2580391876941
-245.66187230093868,584.0261455237008,908.9505590594139
-157.6868757424809,587.0394069330506,890.6344164419044
-138.96386635599316,528.8248280503536,887.1867559258259
-132.7925438350507,548.6858407305248,950.0063732263313
-126.01347045117346,552.2558671921605,922.623933759235
-108.08176084595658,555.6341870057563,883.6340646398108
-101.38436673073885,566.9071497402273,852.300224847425
-113.9808191380339,574.4601877297549,820.6890222451092
-113.54438059887936,559.1216164541408,836.4456771680443
-143.77284801639703,586.5438248535434,847.6737723891441
-218.85353306174895,676.4613807977241,885.4919875798566
-250.71762528488324,684.1632973543464,853.592205289268
-262.8236961653572,703.4257366174994,833.7230348793933
-188.3446436856623,702.1806631214534,760.274915491019
-145.81941845584376,663.2682924342156,772.8164051944344
-134.0957411552365,667.082031070753,776.904447492263
-165.74059439258056,628.4959695716682,760.8612523134813
-198.40312441047658,606.0989226698211,823.242391642406
-201.49286453579973,598.5958507747295,846.7682643920198
-229.6115391086661,552.1742898951222,822.9568711027721
-225.04830905558987,517.5661413428644,850.6136142311597
-233.33758215088744,576.4037668316909,932.7079073893736
-205.59212371197097,583.1165586617245,842.8352189585639
-180.0339565498922,516.9012863720027,815.9687558952345
-137.34659644221014,539.8204279748946,820.4555072323374
-111.43662718665395,562.5162517271444,785.4455904921662
-147.68142026074148,636.7638286264933,835.671712562394
-170.99417232184285,667.7897141225598,823.4442954525756
-224.34266543620913,676.0810266502833,838.3158367026457
-232.67680604487774,664.3971182819822,822.5316494419604
-233.3304441373966,629.4759168523401,810.866095965493
-235.29237813116615,544.0226784885767,771.8792859947077
-231.43785084610954,486.06404837533717,783.9058190105695
-253.46779991128471,525.1354947917995,806.9921940723898
-282.98858427699577,595.2154915287076,829.8613695808457
-285.33393156684497,610.074796184222,759.1328333324836
-259.8043164587296,559.299047075199,728.2894770385402
-249.2869634380752,513.6025044230191,818.8667893725178
-225.26652832516712,486.61571484655826,850.7145661362445
-263.52933978473794,544.9098315938676,846.020812407907
-320.5141409145835,584.1811423880735,860.7332779287526
-352.3782331377178,611.1924051536458,824.8433460967814
-354.9948249402192,548.7449842708775,762.2205340253809
-347.8323382602622,490.6201404149226,758.5995217530963
-326.1654081669072,483.3495638163899,829.5911447844067
-254.2590996925556,509.4889692198662,787.4095639183616
-231.84777676372667,524.5807691719396,764.1467779516961
-250.87874044653375,564.4037464373665,873.6163725635156
-317.395848735297,556.9333054610902,845.1734282349224
-307.6626574824227,548.6613675414134,794.3273187072039
-238.53711512086187,527.7612640402176,681.6191054029664
-120.38769610417424,456.9960180081884,660.0796398362336
-83.63324886684036,441.8002070023913,723.4753967970715
-122.8319558666823,489.27105586515285,805.1454880106868
-205.07308815956523,579.3854170384383,858.5541443816187
-291.40430218270257,610.5448853584048,806.1356324534884
-293.9668490259161,555.835071099713,743.4873274767633
-288.1126582472098,485.79688272753697,704.5657793436088
-267.45422748849,470.54906619487804,748.0974644756366
-255.6775249448079,520.7191038733921,744.1797147853753
-274.6993111816982,536.3768463236682,747.7670764226317
-297.0015244757384,498.1425869180608,778.9581559452005
-311.0521941743613,537.2221910642269,810.0125934952304
-319.16913522966564,575.798055401182,790.1383245042906
-362.3755308897534,575.9194016305263,765.9424982027502
-379.0968373501655,506.1963055681604,742.3799156694693
-316.89516807472484,467.2390673675516,766.9907664696916
-282.15853527963174,436.0897962097149,775.4656279157512
-218.39466076590887,400.38851187714465,733.3707229278093
-167.244675806723,439.8821208057798,867.4399514615083
-297.50934314980145,554.0740211999001,974.9934993091424
-443.8875660903571,582.2518393131191,968.7803684234677
-539.0780745718467,571.6967567925847,1002.7124451265214
-562.8425609152973,454.8607322582126,896.7853446385873
-454.32538124639916,278.40495989965996,730.2473321674579
-251.75365695726882,195.31032513651454,702.1653673782587
-165.73345637908972,300.23606430330443,828.6876762197081
-208.56969505386655,455.9232765521356,894.2391132547813
-294.110629011946,522.0386166529855,857.4130819392965
-345.024039809721,502.91077992994553,837.0921772470723
-325.97370151886736,491.1218407917077,833.49257901526
-287.63033247847125,463.7434801894633,834.1594734185478
-256.6391173336461,486.717686467856,834.5459458632664
-290.69355998225694,498.72790402431013,849.6938302070535
-347.4591221263123,511.019563255546,876.2747727307492
-353.98428617315807,479.4848393692036,805.640050373981
-318.5124379885079,456.2434674430107,833.7220151631801
-296.15516001896674,482.9070069799575,806.4945725604565
-322.39347789510185,510.3332942442119,821.7077187418741
-380.49588799437123,526.1511321399255,809.0102124578731
-372.4798988441517,505.8638780827296,711.0827856607507
-360.2922506666395,459.5891563377913,738.8945256535108
-365.7620084330531,448.6241478996396,805.5676505228596
-378.68691143254836,467.6806044877711,762.1389567283426
-322.3832807329721,408.92965487704777,731.7840445004157
-329.6824093854681,467.01982838176144,731.4781296365222
-313.47809904503583,482.54704715677633,751.2922353708964
-336.8989410247129,478.78837319573967,743.1049338968966
-337.08962795653974,490.32646214558497,735.2133501246603
-316.34044245486484,443.2094548087268,676.8142026074144
-333.42578760331,405.2872285642906,747.3296181672641
-334.81566080159894,381.76645439574173,712.0657920900614
-369.03325804428636,370.56487179617915,727.2901551498219
-352.5831960965264,382.2916082454254,754.9693320348948
-351.92853828779454,378.5941172571674,774.6141648779146
-342.1494598053362,382.9166942839808,833.6159646770304
-398.1879642895383,446.5918534871746,981.6971136932593
-439.59558054993295,489.6463114315286,1000.55472561986
-447.1302636476269,469.44267410379695,898.4699158224267
-418.9738595748804,418.3304186444913,832.34539827566
-351.13723850652366,336.3115844860376,806.1662239398776
-336.35951114804755,387.2341727297294,888.6327135158288
-410.8406030601684,485.02597727052563,942.1311049135028
-459.7645475264234,555.2212019395004,960.7847735975079
-500.1259349523028,547.336756180755,909.1871332208246
-434.85186072715965,449.22781989772255,812.3803745417651
-377.10329215379363,402.42488515446155,821.2519055946731
-279.3685917209241,439.6547240902857,744.0981374883371
-148.54308046070778,469.4906007658069,734.1834367495527
-114.22453131293562,481.7129192945603,832.7716396526848
-151.64199803194774,524.7724758199794,855.6143025396034
-189.82119276205435,498.1252517424402,870.83050786966
-278.64153406107084,452.41953164434346,873.5786430636355
-330.0444086410752,421.58229364767794,841.5157061789705
-350.94757129090976,421.3212462971556,794.1080797214136
-325.93699173520014,393.5870047365819,743.5556484630328
-311.07768707968575,436.80665670743844,829.9745580804863
-319.05696644623805,436.7974792615216,822.0054758760639
-342.47780842591516,433.03880530048497,813.818174402064
-356.82827469115347,468.18128514834325,837.0330337067195
-375.08833291694924,514.9260960674644,856.2251125511771
-359.01148710313925,525.5627558850373,762.2388889172145
-302.73538874131333,462.94300296227567,731.8962132838433
-242.6149602565606,443.76825929343875,803.5037449077922
-184.43097286025304,439.5558116176269,816.1635216919133
-125.89416365425502,466.3274410731494,832.6492737071273
-141.67223261766253,556.1756563148476,914.5263673119771
-229.32193970418038,638.2057073516442,924.7102731309878
-290.3499156184834,611.8062743138585,947.4336292209879
-340.44449429723716,592.883400549627,950.6712281971929
-360.2738957748059,506.9325406739305,840.7743724921355
-347.9852956922089,385.31404710069194,664.7611569700153
-240.11359638612575,284.06540459790045,686.3414111852672
-179.36706214660464,315.2524052556174,765.6386227712828
-250.74005904156877,487.20103195280757,893.5018584327983
-308.5447120066486,584.1943986988422,872.6863913772798
-310.8166397291634,596.2066556877222,915.782657686366
-288.89376086635093,522.3506498141568,896.7363982603642
-260.49262490248964,486.74725823803243,834.4888417553396
-230.37326711976058,463.1602025156399,819.3205630872928
-210.56120081781245,482.4573121300343,831.3256820626822
-257.8117909785707,494.1473387956132,799.1821875971918
-287.7669744510103,502.32750225612216,822.2532669158173
-321.2483365879276,518.3441848133665,853.0945837773348
-349.505692565759,549.1253384183183,809.3966849025917
-393.7838099656866,596.3178047549368,855.6703869313172
-425.4031702977062,600.2192389857903,831.6356757914273
-437.31651481392737,530.7062044632979,835.6166478868931
-381.3402130187169,464.14932724222854,797.4333742919347
-285.2482754049548,428.5867243146233,798.992520381578
-225.94667903922343,447.8257101048779,839.0622689705455
-186.21343680053843,482.5868160890825,867.0116706520577
-170.9370682139161,559.671243492936,847.357660363121
-194.11317830247845,571.4214334150806,843.0463002146504
-229.03947831318544,575.4901011048626,834.6601540791198
-227.74749787134243,482.13202265809434,780.0502720092999
-226.38413729459097,482.4736275894419,819.315464506228
-243.8528957391158,525.5545981553335,862.0793033298834
-287.27853038499387,591.2742883655479,818.0357206589407
-298.45665951165796,568.2878454925996,833.6445167309938
-228.23900108599778,489.7319675934188,764.3180902754764
-210.53264876384907,409.08873060627235,847.2730239174438
-212.17745101538245,452.15338571275623,902.0470802975533
-272.47123125634135,530.2085829513646,924.4288314562059
-359.1297741838447,572.8724895861483,860.1928283358743
-410.75086803342634,511.0858448093896,828.2308433562941
-352.09475203050994,471.2383943548511,750.7517857780181
-291.61946230364094,463.7383816083984,830.1754421744429
-278.22447012996287,486.28430707734043,767.5057231572454
-330.29219968082884,521.9305267344099,813.7009070375716
-399.8725354733778,510.82581717508026,808.7715988640362
-395.5458795817124,455.85087670101416,722.6800181509486
-323.82923832297473,454.90967863643556,680.5871525954328
-220.41267915139218,423.0537441430051,670.4695283302657
-154.14030275374367,434.32466744505007,691.0474015081604
-193.09346208950052,477.99503398204286,780.5825638724743
-274.5157622633621,510.38631948728676,869.5201725359833
-342.2881412103012,518.0484671116029,801.761049899813
-312.6052219667267,451.87092432176127,782.8055452167663
-260.12858621445656,416.3276960022026,748.3901230287612
-251.24889743184474,447.4575925519929,775.88982986035
-284.7955214063926,557.1392881361118,896.6813335848635
-375.69812321231007,608.4554868380131,930.4675908694611
-475.2234453151689,542.7470135061413,850.7064084065405
-501.0977245032708,461.1350461166658,787.8001152279321
-434.65199634941604,394.21514992377627,718.3778354483948
-385.9748232067016,424.36713862532065,671.9093676229905
-326.4825399091433,432.0690551819429,719.8706999841945
-249.25127337062096,473.99570699474344,716.9614496285685
-215.31511780271555,509.29420342318735,799.7675047034412
-214.55135035919506,521.0719256830824,819.362371452025
-251.0398556081843,483.26390765449986,885.662280187424
-353.7752443494976,495.9807885465475,919.4016305262246
-425.86306230975924,418.59452514365256,855.7886740120225
-483.6452815181535,408.456506554226,968.7711909775511
-500.2228079925357,372.52986493858765,831.282853981737
-459.29649778466654,254.9830982037699,702.7802562546843
-362.33270280880834,227.36306485904976,727.8734328236452
-305.57631811066983,277.85533286086485,799.1964636241735
-284.5660852584726,409.4486904294535,822.6142464552116
-294.1381613496964,498.8604671319972,861.4154680752347
-295.25577031912024,514.0277260838309,826.0262169038358
-308.04199191365046,455.8804484711905,802.4830089786013
-302.41519785043823,417.6767805519724,861.5653663585426
-304.7972549239547,433.5231705016494,900.7224689368949
-369.2973645434476,461.31553588636285,923.2102705816972
-378.05774652914096,402.18627156062473,793.766474790066
-336.8683495383235,308.8720409110145,778.9999643099327
-295.9522364925841,273.41854761819786,744.4111903657213
-244.00381373863658,323.70177379635254,788.1896468212897
-281.8954484966834,479.63269822008544,885.2115656212877
-364.3272677213932,542.6654362091031,938.7089373027488
-477.52188565922114,512.2707550488699,901.7941906767347
-474.1211320889397,383.6886194572051,804.1635012975889
-376.0019986437775,262.6768570306884,770.7198686605519
-301.64021352857503,250.81347860890315,807.1961373149853
-284.5650655422596,351.52065180260337,834.5836753631464
-297.17283679951873,479.7856556520321,888.9070171771198
-334.3363941814993,533.4971677382185,805.7522191574086
-360.3279407340937,499.194934049854,840.79986539746
-365.9802277026304,456.29241382123365,797.6893230613921
-408.2321689873708,437.34506686789075,804.9700968220545
-390.9275848531354,428.98033477283275,750.3122880902246
-348.8673502164348,420.84707825812086,743.1202296400912
-328.2904967547532,413.3021979982971,782.7005144468295
-326.681384570674,390.53499411113893,833.821947352052
-361.6433746488353,376.28140088613344,939.3105698684057
-397.9055028985434,383.87624724039307,891.6459749251784
-404.15840271652405,352.4088246241072,828.8651068407663
-404.7304635120047,329.0940331305798,817.1608041482057
-386.0451836253971,349.1049440940587,907.6402237257372
-376.7861604115575,453.7064135051216,930.9733701110982
-381.1587035328069,496.0868390326973,907.2170414973515
-413.34910494409405,476.67348177002344,871.479047381114
-426.76245200960574,406.78315224872927,832.2678998434736
-369.35956723243925,343.44959797688307,723.4519433241729
-233.34370044816532,331.1100120836372,760.8520748675644
-161.71883364859562,419.96604345010786,808.7206130533873
-155.9309244237329,501.5209067316566,847.7788031590809
-229.59318421683247,560.9000015295743,932.8170170241623
-328.5821355916649,538.8027511943427,970.6546068229213
-436.1978861282905,496.22959930251415,874.9950288834617
-455.1013852844754,445.26826184272926,784.617580927228
-389.85382368086965,343.29052224765854,687.8240785589371
-314.810868135398,331.5984561496536,743.9319237456217
-257.18262607516334,390.0332937343538,838.7889850254675
-262.98175217836877,448.49974252165623,881.6751897946804
-280.2322913533164,503.2217933749038,928.3282262546335
-346.6688420612544,526.6660888274794,895.8563831685642
-387.0557223924582,456.9848011298456,856.2404082943718
-326.681384570674,409.8443403200889,829.8317978106693
-318.70108548790876,390.54417155705573,841.7900098402616
-266.3355988028532,416.76311482514416,791.4659950135879
-165.43671896111314,420.02926585531253,812.5894163654256
-224.96571204233865,471.243492935916,862.5453136392142
-264.8998383749803,510.80542285082066,924.6072817934769
-293.7924775534969,534.7004328695325,975.1138258222737
-330.6276863148986,538.2898339392148,911.7568180775293
-328.26296441700276,417.1710013103354,782.6882778522738
-261.68059429060895,330.976429259737,721.1820550340841
-238.39639428347095,315.3910866605824,729.4325789132886
-230.78115360495175,385.81982634232895,823.5003798442895
-286.5667684683353,460.14796082250314,865.5850876701015
-325.8115666410039,514.3336409477243,833.4171200154999
-334.03557789867085,498.81559961862615,821.5720964855482
-324.1382123355071,475.13778915327873,778.6298073246217
-307.6871306715342,409.6271407667247,822.2675429427991
-283.0936150469324,405.95616240000413,865.8196223990865
-276.42263158163087,394.05097561348686,838.487149026426
-261.39915261582706,421.8637353224598,932.8088592944584
-280.5045555821815,483.8431064634713,924.46452152366
-267.7621817848093,452.1595040100341,854.1193985713776
-292.0650782887123,503.2421876991634,920.3010202260712
-341.3428642808707,542.4533352368037,935.1297333951961
-316.1314006312044,479.01576991123375,786.5856332182755
-295.6911891420618,471.4372390163818,822.2389908888357
-247.15881570159027,448.4834270622486,893.6864270673473
-240.81720057308056,525.3200634263485,838.577903769381
-220.85931485267653,501.1762426516701,752.6168467315547
-186.64069789377618,473.75913283333256,745.3717630383464
-122.46893689486217,476.7795322561731,707.0773403761733
-18.96009340600511,374.43673425685637,603.008162828285
122.30986116563761,303.4930378875559,581.8154007739647
191.34566850045636,295.1517592653965,575.0291893765965
186.30929012455834,365.39593031259403,637.5102608943931
-108.23879714275519,719.7870832547303,1067.5307062044633
-624.5547664085086,1174.7538659990926,1301.596365731417
-1146.375163791917,1253.7410838563628,1454.4212345704193
-1260.8077172123,675.3947576389492,716.8278668046684
-730.3778558427191,-215.5425145182096,201.88035669673133
-27.949605624754636,-606.8728872754713,323.61101905339746
369.20966894913147,-369.3157194352812,842.8841653367869
114.05525842158129,478.56811449373646,1974.3439400814755
-733.3115793874565,1580.9986080873696,1636.1142693988263
-1199.1862664620437,1480.301632055799,1217.3882008636997
-1225.9130284041953,883.8451458958973,1124.8081658874337
-860.6129514156212,417.2719532154202,759.0145462517783
-7.194893261205408,-734.3384336139253,-495.8930929522315
167.84732808859297,-313.9492079354316,800.4354188229416
735.0909841791031,559.6457505876115,1206.2936884665
567.6127933596081,908.0501496433544,1080.950171567253
135.2194684219382,1248.1632361713737,1092.952231394003
-190.8765990424865,973.8718114748667,853.5106279922298
-470.87333595060494,646.1166657319269,732.6844539164751
-477.0844274038536,343.33029117996466,615.8739222874275
-408.12000020394333,298.34449072823037,836.8372481938277
-221.62716116104892,301.1609469084754,882.791779047891
-310.55865152728,394.4558029500391,853.6727628700934
-423.7909989649881,365.9200644460647,593.0485945761296
-625.0697230960624,412.71280202719583,888.1463088822381
-571.6875793466679,404.30626156740584,429.7940683107891
-427.16931877858394,175.83986376591395,534.769773572015
-426.5544299021583,500.5175059780864,930.0699015463997
-478.33256004853854,545.8285959017607,760.3830054095946
-628.5908031794752,550.8578362641678,758.1151565519317
-492.38221003094844,411.9959415294724,493.7496494725519
-164.4078253022184,302.43763160712376,644.2434470486864
226.5075229563613,369.3769024080599,685.194230445667
422.97828514324465,552.3445825026895,981.8663865846136
261.0708039952481,1008.4106193246421,1217.3066235666615
-72.43809047941959,1066.3784268837983,917.7670254368211
-310.9104536207574,667.5663962719176,676.1381307582101
-318.7316769742981,426.1659180250137,500.22790657360065
-9.023224036750573,271.6615765832369,799.7348737846258
87.04807452086085,419.59588646479693,985.131517898569
-263.1928334344552,643.5347442806668,1057.619064614318
-748.4982129473368,918.6715137177325,1112.2146706571561
-880.8410619324643,821.8066312145331,981.0506136142313
-982.1335522324138,446.7030025543892,914.0807513269058
-734.2436000061184,78.11250528977786,585.4445707759531
-328.26092498457683,-233.62004354188232,694.617427969796
-53.208384106703114,-153.14811887851613,1279.3053693157196
-56.00138681404965,398.4041441266896,1085.100416554073
-122.29864428729486,706.6674144585563,886.8369932647745
-150.8405010885471,896.7129447874656,913.240505167412
-200.4721286066088,924.2483416865088,920.2530935640611
-192.61623490182683,745.582844294433,850.3301331239517
-148.87958681099053,543.777946597462,820.2699188815753
-84.64929410145157,380.7518367638287,817.8572703216696
-96.6559426511602,458.9630505830228,899.8302172505392
-200.22943614792007,559.2980273589861,780.2022097250335
-361.81978555368045,493.96277016106427,687.735363248408
-422.1757684836311,434.84370299745586,514.346897258493
-452.20233209097916,349.3241830798489,443.54290201037054
-477.9940142658299,374.99349930914235,694.2462512682721
-537.3139655233949,481.3233877012029,849.9834296115392
-590.9561369070989,558.0580524440049,731.1824119347586
-495.15481841403545,379.4088705113368,309.3615046932439
-353.88333426807327,250.53713551518615,300.1381715468586
-190.19134974736534,208.26581962239914,475.41617167942167
-253.5748701136474,413.1135504988962,826.990868441313
-328.1375393228065,518.6082913125279,876.5388792299104
-415.15910122212995,593.072048049028,906.3808742027095
-324.094364538349,564.9696889355694,872.5181382021385
-264.3920197009173,569.8582084605855,1038.2342594056074
-204.25425604054394,617.3372150530508,1207.7314883267989
-334.18955504683055,642.7883120127669,1343.0580269510997
-590.1740145717448,674.2353403047932,1174.284796541123
-626.8521870363478,494.3614792003386,931.0151784758303
-395.88850422927305,284.84548750082854,636.9106677611621
-76.03024478287693,194.55369570648492,771.5183064553136
69.65334747339816,344.8455894724499,832.0629368846652
7.787226015000027,501.73810628502093,1015.0642676143231
-129.84046539847964,633.3926468263883,906.593994891222
-277.200675052133,676.7713745264695,868.9185399703263
-305.51105627303923,680.5065950146076,829.2362835422903
-333.3748017926611,606.1182972778677,707.4056889967524
-388.35789999643106,517.4519331270108,695.1079114682385
-427.7831879387967,462.4627166259631,569.1148353413246
-316.6310615755636,376.4884032773679,571.0696313216032
-264.27169318778584,349.6362162410202,642.5884476350233
-264.818261077942,368.8089204774312,622.8916092651416
-215.48643012649583,395.2634181907176,596.0689939989702
-184.6940596432013,357.39421718935625,714.396863352929
-233.1917627324316,513.654509949881,838.7308612013277
-297.04843142153544,677.7706964151877,962.8089102802691
-419.9323928150796,706.8601408228092,1078.6048242774038
-540.961490417217,652.3246980365366,931.7687487572209
-512.3849632647235,461.29208241346436,795.4795980278689
-283.40972707295566,296.74659542249395,768.0675867905962
-68.29783871148659,275.5997205977577,755.6627390597198
-59.465770676020874,447.7390342267747,974.9924795929295
-251.89845665951168,715.7581844972545,924.1106799977568
-446.67139135178684,708.9964462889978,862.3464689776837
-373.29057323346916,615.7862266931114,887.3081021551703
-58.2497590920447,473.08510041655416,782.6189371497913
165.18790820514653,238.50856306689855,276.55723412174393
95.47368367383359,245.80769171939454,597.3069294815253
-108.4549769799065,630.909637847787,1079.6041461661223
-242.0959247041549,1012.7189203244739,1256.8512183059456
-462.4555786124722,1164.8524215710768,1202.0108803719925
-498.4250483090556,989.0166366700149,978.3657008254604
-409.93407534683104,607.8375388129484,831.8416584664488
-245.39266722071253,261.5623072099035,760.9061198268523
40.94058623485085,20.217913354713385,848.426322954322
232.32296451897437,54.159779333411514,917.8975491120822
229.7920288783632,325.85133557331,1011.134281329506
40.820055778476856,679.699999490142,1042.4354902030766
-208.0771721229982,867.4012022454151,1045.9229196514611
-376.14169976495543,952.0529436657779,846.8845120402992
-392.6978121988651,789.6855705057284,847.1843086069148
-241.09966196407544,511.6701421994259,610.9915210596891
8.545558371105322,133.92748798009515,557.1362289874728
167.34868686044675,41.22131410828367,712.8876833577216
141.81499288747943,380.7661127908103,1017.4799753228679
-175.26882268664633,980.651904574957,1191.2426771629457
-631.049338968965,1373.9452310422012,1073.2003283486206
-770.668882849903,1035.81753198085,781.8235585036686
-419.56325554598163,194.06831078910741,417.08330571601925
86.61530696007303,-369.46051913752405,579.627089780914
341.5233540505678,-199.36267736688882,786.9517113387345
100.02630867829484,427.586382709692,1024.5496678274437
-506.71432140435326,1028.5469553823173,1064.4511632412703
-879.281915842821,998.849760111761,878.4365711022624
-875.3947576389492,693.7374128779961,942.3177129804777
-489.50763002656373,368.36738335721174,807.9099386640698
-218.73626569725647,210.072756751796,651.5905023631924
-59.69948963203541,177.223618666925,579.5149209974865
50.568542774545854,242.63739401324614,635.8909515481843
94.40716248667997,499.5528544406092,847.6105499839396
136.48289680981784,712.5481178588,906.3920910810522
19.12120856765562,895.5056007912999,927.5644588111129
-220.6665884884237,947.3357364645422,888.4756772190301
-430.1948167824895,743.9003125430194,886.0232597268181
-392.3990353484626,374.5438044592191,719.0773607704976
-299.3499309142266,266.8352597472124,869.9698673859066
-354.2810235911346,321.07192568308244,829.7175895948158
-540.1650920548811,397.6383372507432,1007.2073541933282
-656.6421764822851,409.8983852793768,977.9496566105654
-577.9894255428715,229.06395150229696,728.5617412674054
-348.626697190172,171.75182146808544,579.1304879851938
-48.959226647224085,273.47667144233765,536.1810608107764
45.86530568542775,450.9970275272392,568.398994559814
-53.23785390525818,645.138757883681,558.4108742536953
-86.67292092610627,539.4543498544356,393.4320078722092
-93.32300020904184,463.5374975144418,550.5733354407469
-90.36215221303912,619.7529227615955,714.9250763512515
-234.13296079701024,773.1620889906341,869.2387308612014
-457.3977861961017,853.1812596554379,967.66479888647
-609.4160595106382,698.4342257549725,836.3967307898213
-607.5397816787589,430.4405683898172,723.5151657293776
-485.1432446350181,215.85862654423275,631.881427398755
-333.54917326508036,187.99284159218493,677.4168548892843
-204.31543901332262,326.55901862511666,710.282308433563
-248.6863505886312,482.85704088552166,842.5272646622446
-321.5695471950157,602.2290996415699,715.4451316198703
-334.0569919391434,586.6376387451373,691.7632422896709
-352.2691235029292,626.6665986855859,824.7923602861324
-380.56318926442776,716.3649156439764,879.010671330169
-393.6502271417865,692.8992061509283,839.6475860767949
-351.0678978040412,565.1777110430169,872.1133108655862
-281.2856582013226,444.0323657926,798.9996583950688
-169.16990001682532,314.8220850137407,726.5467820305611
-85.27509394135613,311.0807462283247,814.1577399009857
-101.33644006872888,482.95391392575453,982.0958227325336
-195.22160982598544,638.7889850254675,1019.410298114035
