acc_x[mg],acc_y[mg],acc_z[mg]
240.4949702497795,785.9860400850445,558.4108742536953
248.55582691337003,816.9099539598132,562.352077416855
237.6499620155711,813.3021979982972,581.8235585036684
236.8872142882636,762.905783320502,570.2079711216369
233.22541336745988,732.0879199318831,582.0315806111159
209.45174957809243,639.4171302126618,581.9877328139579
175.9173621981003,589.7681675189796,624.8239714887347
184.4962346978836,636.270285979412,640.4939505335666
207.6142209623062,732.6385666868912,620.8919457714919
208.594168242978,833.2937343537295,628.416431707056
208.42999393268857,868.009972824563,616.5224617988815
201.02379507782987,833.3875482453234,632.2271111949545
211.49424115268724,775.0964906466531,612.9575339183106
199.14343838109858,759.5397001014619,593.2015520080762
217.5656314847578,755.3170552635203,569.9448843386886
206.6862792084963,774.8864291067796,585.4139792895637
199.38817027221327,775.0485639846431,597.0774933336054
222.4266186720236,801.8834158453703,589.4836666955587
233.8525388384413,724.5216256315869,601.6896697649045
240.14214844008913,697.0739243268599,566.554327930537
236.83418904518877,697.2401380695753,582.2028929348963
232.84403950380613,697.2350394885104,578.2188616907915
233.88007117619168,728.390428943625,601.6764134541357
230.16218586367418,767.0733634829428,597.5659373996218
249.56432624800522,824.8871938939394,589.8120153161376
248.74549412898395,863.300923353031,558.2732125649432
241.8297787725676,840.3868803312039,585.7198941534572
264.7601372538023,832.437172734828,582.1651634350161
277.65852763176014,751.5838742078081,637.5755227320237
285.42060744494813,720.6426251574188,645.6455568415311
275.443704017172,636.1672946419012,708.5753034930381
274.5167819795751,601.1777722259895,689.0558957442145
258.9395971101243,616.7029515685786,680.9216195132896
290.2571214431024,628.1737392483673,693.1255831502094
314.94037209444616,669.8719746294607,618.7872515079054
353.63656294453256,731.4057297854008,611.3096725181383
360.96118450235303,754.4217444285256,595.6427526219454
379.67501644292395,758.9921124950928,690.0990654300908
375.1668510653485,782.0285214624771,666.4059592215488
372.0210265483117,824.716901286372,677.988915684765
402.79402242355957,836.0510469936218,674.4872102093989
431.98645816869174,796.7838150642677,635.810393967359
407.6121815298803,754.1668153752812,608.1169410553043
382.39357986672314,649.5480107885976,568.8456302610984
408.7695594316102,583.5366817414715,565.5386905824109
425.737637215563,591.5312568512184,608.9367928905386
426.1475631331801,553.0155557708291,628.695833949412
420.8134276230925,522.7748517587556,703.2860354963215
436.49870241111904,599.9622705001199,695.4107671834929
475.88524113739146,656.8104296574264,597.693401926244
493.5711991352807,663.988212080578,550.8394813723341
451.26419317503945,675.9219509210587,550.1654489555557
397.8341227636349,711.2255459305676,557.0954403389537
337.75856179225326,762.303131038632,591.3446487842434
307.88495561685187,820.7083968531559,606.3987192364366
298.2873866203036,809.704639198911,665.1608857255027
271.77782423151643,759.8252206410957,688.479756083882
234.3369040396058,663.849530675613,739.2626432063958
191.32527417619679,478.64867207456166,758.8666874008964
81.6776371135913,333.28710619834504,847.9807069692505
9.080012032651315,369.76133542035257,968.4336649110554
36.57038846089134,462.3678830181561,964.6087093961752
33.83214451418171,601.7059852243121,968.0216995610123
54.82330867319626,724.5736311584487,881.5803561868734
76.30658787659395,781.9132935304106,822.8396037382797
94.73622490860795,811.4534525041681,681.7292347539681
107.12322760575732,826.0221380389838,591.5995778374879
73.73241626855247,790.860283583079,524.4991918749013
49.823130222858985,678.8454773036664,524.5185664829479
62.721826515680696,578.6828325676966,583.9190753213381
55.042955545471706,543.9920870021873,591.7708901612682
47.58148807186961,540.2517679329843,599.5207333799004
29.022347080807414,583.0584348375849,610.8722142627707
17.979024437499046,637.3440471516777,614.4483590216844
3.844279137116141,761.3649921226923,625.5918177971072
-10.534280309789786,811.9490345836755,644.8287641549358
-1.762589671294479,750.3653133332995,688.339035246491
-29.25219111521264,619.1400733175958,700.1442898441364
-40.347111398897695,530.5226555449619,731.673915149414
-20.20577873177895,461.07896172495197,771.4561037663219
-13.016269572178066,426.13226738998543,763.831685641886
-27.121392116573958,438.16491870312495,798.9017656386229
-43.46244640116656,441.91339550203185,771.1716029429011
-44.11781801124747,484.22957890818986,743.547490733329
-72.62112953964912,576.7402731819735,680.0140720837392
-104.37815156042075,677.1547878225491,632.1047452493972
-130.9183054355973,777.8813356242958,623.51771501991
-139.99785859595278,821.0744749736149,686.029378024096
-154.34730514497818,778.979569985673,725.2027960618561
-166.15154002641066,705.6313827861707,733.1229318880556
-181.48297328853383,678.7373873850908,740.8330061743817
-206.8667689781934,666.762859896091,677.6993162802793
-210.96704787057766,709.2116064099362,661.7968419388885
-246.65711532480515,740.1212442577232,625.8365496882219
-219.00139191263077,740.083514757843,645.8739732732381
-215.82905477405643,720.5732844549364,630.2886306740835
-173.33340131441423,774.3398612166235,622.8946684137806
-183.9935146048855,766.9316229293388,650.2322403675058
-173.28037607133936,840.0055064675503,610.8997466005211
-210.56120081781245,863.7893674190473,641.6584664487873
-196.26579922807485,878.8373195739626,606.4996711415214
-192.30318202444263,874.9736148429893,610.4969586963949
-186.01357242279477,847.5248938220494,575.3616168620273
-180.92314908760895,785.0183293989284,512.8550524389063
-186.69270342063805,731.4975042445689,579.6678784294331
-184.74810460248915,730.9886658542928,524.7541209281458
-183.7936502271418,750.5376453732928,548.2504219075832
-179.06930501241507,797.0693356039015,563.8622771282753
-179.77902749664773,850.957258594933,532.272488566432
-175.35447884853647,912.8621904523973,536.0546160003671
-170.02034333844892,943.1018747482577,461.46543416967063
-153.59883344465237,1008.8878465123157,477.18741874136435
-154.1994462940964,1039.6312706173874,453.5269434516375
-134.82381853130275,1054.9576052984455,453.7655570454743
-104.59433139757206,1008.228090122519,446.526591649544
-129.05018533342172,954.0046804974177,418.87086823736956
-125.33331973711718,934.6310921670499,418.99221446671396
-133.55835071099716,919.113050837952,407.14719093676234
-125.30680711557974,957.8092416880382,414.9898283307756
-126.17968419388886,969.1760183141033,387.46666802628835
-118.6093110287407,1007.7008968404094,375.67568945562454
-151.34628033018413,1026.7726491717356,316.2517271443358
-167.76982965640664,1038.2240622434776,284.5701641233245
-206.1121789805897,1007.672344786446,295.8726986279719
-220.65333217765502,977.1145090321364,327.15453289349574
-186.16245098988955,949.7657202000684,327.76432318885657
-131.7493741491743,899.2612156036976,352.2966558406796
-125.40469987202563,860.2407549978842,321.1269903585832
-129.61306868298553,867.9049420546264,309.26361193679804
-170.2202077161926,863.8209786216497,249.7998806932031
-174.72837309376803,867.549061096297,230.09692402604355
-166.1219682562343,879.3002707346546,253.73394584287198
-169.9214308657901,906.3767953378575,249.66119928823812
-176.12742373797374,887.5038876680621,296.7272208144474
-211.02619141093035,856.8216465357692,296.30811745091347
-233.54662397454788,826.2556530517559,319.6218892282278
-243.24412515996798,814.2301397521071,264.57250947061436
-258.6571357191294,795.0390806238624,268.330163715438
-238.65438248535435,802.7991210046246,288.22686646306335
-208.3443377707984,806.2926687502869,272.9708922007006
-200.3385457827087,829.4799957171921,276.93758826918474
-184.43403200889196,879.6887826117992,280.93079695920625
-188.2610269561981,883.5871576940139,280.8604365405108
-234.58469507935945,891.6469946413915,276.21460947418336
-261.99466688420614,868.5748956065529,268.03240658124844
-301.9471481086814,860.7934411853182,228.21452789688632
-304.3261460335589,799.402446299195,283.3301892083433
-283.8227121392117,775.3952674970557,213.07480128280304
-289.9777192007465,860.8066974960869,240.16764134541359
-228.34097270729558,870.9151443153372,127.24222848781184
-214.40757037316516,859.834907945119,198.13187989782446
-309.46245659832874,830.0051495668757,239.97899384601268
-375.4350364293618,841.9806967720883,223.25258880453575
-379.31505661974273,818.8321190212764,227.19685111633436
-398.0921109655184,849.9987253547339,234.65913436290683
-455.814166917347,958.5985020368831,213.8059378075082
-508.1837324672544,1086.8543284403952,232.21181545175978
-523.2826704328186,1254.108181693035,317.76294657196905
-536.3258605130193,1339.7847379074406,368.2980426547292
-539.7419098264953,1305.1653724768398,387.9867232949071
-544.6018772975482,1181.3616270591897,384.40751938735457
-542.3554424803579,1107.554567563847,353.292918580759
-544.5355957437046,1029.7706148378907,306.4277811485064
-491.3502572234148,978.9581559452006,295.6218484395793
-420.379028516364,1013.583639673079,335.81396297410436
-335.0573335440747,1013.0656238368863,352.79223792018684
-278.264239062269,1004.6417482014756,326.1990588019355
-277.9644424956535,1008.5788724997834,334.0396567635227
-281.7363727674589,1020.2158739222875,333.9438034395028
-294.7428530639923,1046.9732273508284,286.56370931969633
-273.8947550896586,1058.812132583502,330.00667914119504
-225.73457806692397,1034.7672242814826,279.788714800671
-187.63594091764264,991.876940647418,276.57966787842946
-168.72224459932804,960.7450046652018,273.043292051822
-143.05700723488656,948.6215986091072,238.14758352750434
-94.2166794980957,963.367714764981,199.58293606889205
-78.28504127301373,978.8266125537264,211.5431875309102
-74.48517077697278,932.4407417415733,219.60608362692665
-70.87557932627351,858.9732477451527,227.75667531725924
-83.33528778940821,827.9422636680213,208.05167921767375
-98.5039743439401,843.5704343481211,211.69614496285683
-121.40741231715216,894.0076376744353,207.2583400039769
-128.48832170007088,944.4295452575549,214.831772317764
-124.55323683418905,975.3147099162304,210.8620171006409
-143.73919738136877,967.7606522104899,214.52483773765763
-162.4040829437168,879.2360286132371,249.8651425308337
-182.0529946515885,844.5330464531722,245.76384392223648
-164.20388205962283,836.3039366144403,206.81272401890556
-149.58013184930635,839.8484701707516,183.47141990384077
-128.21299832256685,828.6407692739111,246.62346468977688
-131.8227937165087,882.7989170613819,242.46200282461396
-161.36907098754418,929.7007642773018,269.3335644690083
-149.64641340314992,991.4425415406894,261.4521778589019
-163.61550580473457,1003.5098632050701,300.44816527560386
-158.28952802435083,999.9877634054444,343.7106453274054
-165.94147848653722,969.1658211519735,351.54920385656675
-180.45305991342613,903.8591160080151,390.7980808940872
-195.72942850004847,846.0840348131117,406.46296135785417
-214.6145727643997,823.1567354805159,421.9555097816278
-215.02347896580383,803.745417650268,414.16589763068947
-195.48469660893375,861.5928986962929,410.33890268338325
-181.38100166723603,907.4882860100034,363.2993937787114
-216.38989869119425,919.2588702564077,350.96184731789145
-215.24373766780707,927.2707805417754,382.3487123533521
-196.08530945837776,911.6466887265276,382.68827785227376
-172.01082938618185,911.7078716993061,410.5214318855063
-179.98908903652116,873.0800018354893,410.5316290476361
-172.6359154247373,822.7274349548521,410.812051006205
-131.3384285153442,822.1258023891952,380.0359959823182
-134.3465913436291,826.2301601464314,403.52413923205177
-133.01178282084098,880.6310003925907,430.8331591318137
-152.4985596508492,946.3772032243428,410.69682307413854
-152.41698235381094,977.2929593694076,406.6689440328757
-137.3302809828025,969.3677249621431,399.0720582461901
-134.211988803516,922.8115615424229,387.50235809374254
-137.19261929405047,872.8556642686341,422.9476936568554
-122.89619798809993,849.2849240056494,395.76919743235464
-114.26226081281581,864.9049369560453,419.3929629384143
-88.40715228951784,918.4828662183315,376.42925973701523
-119.72691999816453,964.940117165393,352.25586719216045
-145.4196897003564,992.5030464021863,383.17468248586425
-153.86293994381364,1003.9636369198454,359.4622016692755
-126.61510301683043,965.2052433807672,375.69914292852303
-103.41248030673064,957.3228370544479,379.998266482438
-110.90127617484055,949.7137146732066,387.760346295626
-85.67206946306844,933.6195336837759,341.097112673543
-59.46118195306247,921.6348090326463,321.90707326151136
-80.09085671457635,863.5130243253304,294.32171026803246
-72.05681858738714,871.2598083953237,302.2652995671305
-44.45646576557744,921.4125108982172,310.35878714953634
-28.852666302967886,967.6841734945166,306.5124175941836
-29.098621853538162,990.7940020292353,294.6561771858892
-7.313751382990115,974.8323841474918,259.7156011482005
-32.53292408722653,908.8322719787084,212.4650109874422
-13.019736607302189,885.5735648768948,224.60881136779636
-2.1683041609520073,881.4447339305472,205.1628231863073
6.410700901938992,908.6375061820297,224.82193205630878
29.312354371778337,954.7470339004656,209.31102874070146
43.907654499752724,973.7321103536887,181.99385111123578
38.93623204662143,969.6195948667487,150.53560594086667
61.293611987783805,957.6634222695825,131.28846242090827
53.2044072134725,980.7987437096257,115.39006694436941
37.57062809420139,1065.8277801287902,91.32180714107265
11.44060407988457,1128.030469120444,102.49473571505052
-6.027379380318458,1151.8102512070893,149.24770436387556
-24.50378059785962,1148.2922302723152,172.5308846548006
-0.5369070987544167,1113.570893220417,204.40415432385169
18.75920931204846,1040.0493542647084,220.6390561506733
8.09928976765766,1013.3327894846866,251.96677764578124
0.3379890176563863,1005.6543264009628,251.87602290282618
-55.8284429443286,1045.1275410053383,290.1480118083138
-54.35617667603106,1060.943339468626,329.363238210806
-70.31422555102915,1003.0010248147943,325.3945027098959
-70.99478415157063,944.9016738641637,317.7313353693668
-10.866095965492805,920.8710415891258,279.46750419358295
27.424145860207105,866.4457281538549,284.14902132736466
8.511550835402508,858.9599914343839,295.6646765205244
-12.864637771308246,894.3329271463753,338.39588442536444
-59.43324172882688,886.8839002105715,329.8741160335079
-59.73314026706369,882.9467759122637,322.03351807192064
-49.31714703797934,836.22847761468,298.79928415921853
-14.990236217260737,824.2855613282824,291.5052540877874
-23.679238068045667,839.5466341717101,259.9266824042869
-29.996278035822634,882.4358980895619,291.0841112918275
-18.13595876267635,886.2832873611276,299.09806100962106
0.9129927141276584,893.8036944318396,291.5083132364263
-22.91628639749558,870.6326829243424,275.53139961148815
-34.339555301759525,832.1373761682124,287.2642543580122
-29.640804963978532,836.1815706688828,310.8686452560253
-21.879438952139623,843.8600337526067,310.95838028276734
-21.362850718645003,917.3652572489078,310.71874697271755
1.320440721347249,971.1440706051507,287.3295161956428
-6.605201572402401,998.1818459922604,275.3458112607262
-32.84332570245701,1006.2987870475648,294.5480872673135
-63.42624647560584,1041.35459101732,293.971947606981
-114.58449113611684,1045.3416814100638,261.7948025064625
-118.30237644863436,1064.7060922945145,261.6744759933311
-141.0410282818292,1061.126888386962,273.11977076779533
-136.3697083101773,1061.3002401431684,296.7363982603642
-142.44007892603491,1061.769309601138,343.7391973813688
-182.18249861063669,1012.5547460141843,429.65130804097225
-186.880331203826,969.8918590956139,414.02721622572443
-187.6430789311335,919.4954444178186,402.4116288436928
-145.96319844187366,915.129019593847,383.42757210668276
-145.5002472811817,922.9685978392215,395.18184089367935
-153.61514890406002,884.3070773403764,391.2661306358441
-146.75245879071855,841.5544553950635,375.8143708605896
-147.4071165994504,825.9426001743715,360.1586678427394
-112.67150352057024,852.721367643385,356.66410038086406
-129.06752050904234,868.0426037433782,324.97030076529705
-117.3989078839359,902.7374281737394,321.1035368856848
-105.94953424461973,964.4108844508575,305.3682960032223
-100.43256361754524,987.9693881192866,348.54206074449485
-92.17989833429358,968.7375403425227,368.354127046443
-66.05018023484065,925.8360398301154,353.19094695946126
-67.57638949080471,882.9722688175882,317.9913630036761
-38.22181886780909,905.5365491783639,271.2598083953236
1.2388736214711449,959.537660669036,287.36724569552297
5.119118149419017,982.6862384198479,283.42298338372433
-6.523226586041106,990.4789097194251,279.29721158601564
-21.392422488821364,1029.3525311905698,286.7921257514034
0.7462405612518037,1044.3729510077346,255.67650522859492
-6.74195571372487,1017.4565218499694,267.4287345831656
-38.3325600485385,986.6080669749609,251.3610662152723
-38.79642895382216,998.0778349385369,235.6176676031061
-35.0521329913885,1001.8823961291574,231.7356079802991
-12.913380206288592,1016.9048553787482,200.61998745749062
-1.1079012710762597,1032.3301025324654,204.66928053922595
18.56842040860029,1032.2791167218165,216.73864163603272
9.962260302957688,1001.2175411582958,197.090749644374
17.723993412633266,989.5866580330695,201.17063421249867
4.964009116262945,973.9268761503674,169.63591032615625
-5.205263775091392,958.9176732115453,212.70464429749205
-5.477558595442889,939.5400060163257,208.84195928273164
13.653388262046676,939.3564570979897,205.2046315510394
40.79109583802828,943.0519086538217,209.5231297130009
6.273946760616521,927.9132017559514,216.90587509496112
-16.601285862144568,924.2911697674538,224.42526244946035
-23.40850341350003,936.1616862027298,247.83080868594274
-31.088292128300694,940.0906527713338,247.7023244431075
-33.38744627370203,948.2341064481756,290.8108273467494
-60.90713954306518,948.305486583084,274.70033089791116
-53.11824119347587,940.5423870536831,278.76797887148007
-60.033446691785684,898.318997822906,310.2037902851637
-59.623928660653746,879.1126429514667,325.97268180265434
-56.12518036230518,886.7176864678561,314.2255510291486
-71.04882911085846,917.8547210311372,321.74697781607387
-60.362101227228464,967.7514747645731,286.41687018502756
-68.7507966532914,967.6393059811455,266.668026288284
-38.90472281564041,963.2932754814337,239.65778323892462
-59.15373751484962,959.3347371426532,211.89498962438756
-69.26901643272679,971.3714673206448,250.94910086522924
-96.7066225469452,963.739911182718,238.79000474168043
-80.52984454426334,994.7076728546447,254.62721724544065
-61.890349915618486,1021.439533377861,231.26755823854225
-62.65452524562414,1048.27846410344,203.69341212340606
-85.475366205585,1052.387920441741,211.18730657258087
-70.06153987345323,1052.2757516583135,211.4187821529269
-66.04446982404798,1056.1506732676298,215.3905768024759
-68.91588870817253,1040.9772960185182,246.79579672977016
-46.394538399963295,1013.6121917270424,235.4514538603907
-58.22722336373788,994.323239842352,231.41439737321107
-16.057063319278246,982.3558503668431,228.16150265381145
-6.40523522303743,962.4785222272642,177.3531226259732
28.57622123762957,946.8381149526089,189.70392539756187
40.2728760585929,946.783050277108,193.80420428994614
55.41443816185956,927.28607628497,190.17197513931876
39.75475825077881,950.5152116166072,178.08527886689137
30.875375383030907,938.6946612757672,146.59542249391995
56.78595646831488,942.0821585352799,115.5746355789184
59.93014943941102,957.321817338235,92.02276006587368
32.79193200532292,972.9367317075659,83.71431630577212
26.01112510388359,1027.2927044403543,99.12783672303999
16.358797346698417,1066.4803985050962,145.94688298246598
-1.817246460310096,1047.595254240745,181.05979106014797
-25.400621007173708,1001.3144141985287,176.9380981272912
-61.3353183808946,958.7871495362842,149.0702737428174
-82.15680176206963,950.8221461967136,105.61506732676298
-104.86863505886313,970.4129340804456,113.05797596528886
-102.3336205534,1021.255984459525,175.71851753656958
-123.16336363590013,1018.1448302937295,242.13467392024802
-142.70214599277023,960.2963295314914,245.96268858376715
-143.08351985642398,925.4444688043318,242.1499696634427
-93.86120642625158,917.1144070605151,219.36747003308983
-55.62694702064417,932.1888718369679,208.11490162287836
-21.463598680487223,916.3435016035038,196.906181009825
-8.294993703252386,951.4156210326666,236.2315367633188
-45.18495102812887,947.2674154782725,172.8990022076856
-56.363895927763316,962.8996650232241,180.5285189131865
-32.644073154441124,1009.2141557004687,188.57611926600828
-43.55034593872526,1024.916765664116,204.05847052765216
-54.91875411073099,974.8476798906867,219.7559819102344
-10.422213497983513,958.6056400503741,173.3813279764242
15.379155980890522,965.8262505544708,138.42239704690186
6.880555541392831,1008.1679268659533,106.7551100528723
-4.463104118123926,1077.8298399555406,98.50091519530116
-27.66622648916807,1105.0154741935319,90.21235590135267
-18.405469757766415,1132.3846573498597,129.50497876440988
12.913278234667294,1124.5430396720594,145.69909194271236
21.249152360897966,1039.6822564280362,181.43198747788492
-2.6065577949656613,974.0206900419615,173.44658981405476
-7.522426108813917,919.7177425522477,153.93330036250913
-0.8235493262225124,873.0616469436557,134.5678697618453
-4.240367505723158,857.753667154431,150.26640086064052
-0.687599740992082,892.405663503847,134.50464735664067
-11.784146472036834,881.0256305670133,150.07571392881363
10.299337694319671,926.9301953266407,111.0052872285643
28.939342181071012,934.3476110598422,91.63598170629116
43.50741588615889,949.4638842010269,64.33093869975986
13.006888183018667,957.5074056889968,71.69614496285685
-48.6212926942432,961.8524164724959,70.75831196178105
-75.54159677361791,989.10739141297,66.3385559798708
-90.49277785992159,1035.6849688731627,69.8820698199691
-104.7085396134256,1109.4818312063753,89.04325126317347
-92.63040895718723,1144.2745483931824,96.9560451326396
-75.47123635492244,1140.736133134149,148.24532332651825
-94.13836529293899,1129.4478746564832,167.62706938658974
-96.8458138100167,1098.8665854292751,206.93508996446292
-69.59889462762514,1098.734022321588,215.19377157337115
-65.93576807574453,1071.619768218505,215.33959099182698
-42.45996339218796,1044.495316953292,231.4816986432676
-30.653179220223016,1001.98946633152,247.5004206329379
-27.26241886882881,955.5006041818563,243.78253532042038
-0.17982491472623172,990.0771415315119,240.14724702115402
-8.94996762401024,974.4224582298748,212.59655437891638
22.423151636899455,974.3204866085769,228.7651746518944
37.89173672966814,962.630459942998,232.96130686829858
45.08124588926902,927.6837656080313,225.3368887438626
64.26822615266173,858.0004384779718,237.63364655616346
60.851361066215276,842.692458688747,253.33217765495866
30.84101094665355,881.7537079430796,268.44947051235647
24.52397097887658,924.6429718609313,299.60791911611
17.716753427521123,936.5145080124203,323.0134653525924
-16.634528610687646,809.4221778079161,358.24873937583175
-60.98310840093203,666.3672100054556,330.59505539608335
-118.42270296176575,673.6316683067104,227.66999943915613
-124.13209403822917,758.1579846328767,156.65594265116022
-78.93072557907135,958.3588687268334,86.01459213900773
-81.39629741043068,1097.765291919259,97.28123263295826
-55.10464837635686,1136.0046499059313,70.07367449638767
-6.044938893505939,1085.1514023647221,51.35698735042038
-3.0347672242814827,984.5023529951615,47.817042517067506
-12.13074801282803,903.1137034563282,24.4076213589758
-46.21129539649117,872.6364252828438,47.54763349359874
-63.92519361861595,919.5178781745042,82.44578933682757
-97.76223277061995,981.7878684362144,93.50267420576854
-148.04953781362647,1032.3301025324654,76.88048416125794
-162.97308459055847,1102.0888886622854,76.42161186541786
-185.65871118067844,1144.8557866345798,79.86213436800539
-235.1282038208767,1214.9102904661634,82.8094201383755
-257.4059439258055,1315.7092381190316,86.06027542534913
-262.45965747732413,1357.925489336318,42.67135056313828
-243.520468253685,1407.9017809343661,23.163363635900133
-203.18661316555605,1411.9092656513694,74.77405638010943
-189.13492375072022,1334.217087384581,51.69889819663189
-162.4775025110512,1244.1047656437215,-49.637949758582195
-177.80791605696137,1197.9014240336917,-37.93782790249474
-175.78989767147806,1175.2331326191922,24.962754865320985
-178.28922210948696,1238.3943548510451,162.07369489071192
-128.82788719899256,1153.8802751194344,272.9892470925342
-115.95498972635916,972.613481668052,348.36157097479776
-147.29698724844877,802.7991210046246,368.0879811148558
-197.93507466871972,648.5731620889908,383.54789861981413
-278.2010166570644,587.5727185124381,413.9486980773251
-275.46817720628354,679.9477905298955,362.6579922807483
-214.87867926356097,818.2325258880454,304.229272993326
-184.78991296722126,906.6327441073151,265.13641253639116
-119.69021021449731,906.0239735281672,254.33965727338082
-143.27216735582488,801.8161145753138,262.186373532246
-103.8907272106173,728.3547388761708,302.2703981481954
-54.939556321475735,662.0283175192345,283.60449286963444
-21.238037454176503,561.104964488383,276.601081918902
14.426741037969133,468.39848470170756,324.5430396720593
2.7847939918320734,456.8818097923349,324.4074174157333
-43.379135586566264,661.9396022087054,283.77784462584066
-112.3176619946669,845.0867523568193,368.4693549785095
-154.93568139986644,1012.4150448930064,437.9099896498805
-146.00194765796678,1051.286626931725,465.38420357614484
-124.06173361953371,1044.077233305971,544.2296808798112
-110.70039208088389,990.3759183819144,607.4051791386458
-61.08589579520021,876.8764052964062,506.4910035537111
-40.3375260664957,868.3791100936611,440.11155695369985
-9.919279264580668,887.3478710874764,424.80561659690113
-38.02032294412466,907.5800604691716,498.8839206048957
-36.57528309871363,919.528075336634,538.1113836019437
-42.04575466647632,908.5630668984822,604.7845084712925
-95.69231082989604,816.3695043669348,631.7651797504756
-87.60147450964398,715.9967980910914,663.621114243906
-30.725681042965743,661.2512937649453,648.9596345337093
-22.71805356569267,626.5105821050003,664.8957595101284
-53.7169165821152,589.0829182238584,778.3707994065253
-166.97547072649684,575.1158652546998,847.3647983766119
-231.66830671024258,672.3743582161086,849.992607057456
-217.20975052642854,749.2538226611534,806.7790733838774
-167.1110929828229,937.1049236997344,657.7597854517089
-153.71814024157078,1114.121539975425,563.1729489683022
-157.8755232418818,1284.0062610575478,519.3659404587704
-222.593852130952,1300.158565871118,537.9655641834878
-230.65266936211654,1191.9972671605494,549.9839394696457
-236.1938072634386,1029.4035170012187,534.7503989639685
-220.6400758668863,874.8390123028763,570.8269388629145
-210.9323775193364,785.4619059515737,535.9516246628564
-162.1991199849082,707.4954240234944,513.3975414642106
-101.85404801843649,753.0328909464497,467.0524593005767
-19.695410767183496,728.5505243890626,397.72195398020733
-2.2558977836468115,758.838135346933,339.0117930180031
-21.19612711782311,766.7929415243739,346.55055498054895
-57.63068937914579,756.0318763288177,408.83482126924076
-55.96641054794451,721.6919131405731,463.92091081052143
-49.90338188882035,687.460039870904,534.769773572015
-51.38533546114117,734.4271489244544,593.4585204937466
-63.16519912508349,800.1131884996406,573.437412368138
-54.75009304910444,842.7128530130065,585.1937205875605
-55.459509618473184,857.9820835861382,561.5842311084825
-30.148215751556346,834.1849663238721,518.8723978116891
-29.43971692677928,857.5344281686407,534.5026079242148
-44.726078732288805,881.8536401319515,644.0813121708229
-44.88953924122917,877.9501664686719,640.1676413454136
-53.631770278331544,827.5455940611728,620.5829717589596
-55.540271142541044,807.7569812321232,569.6012399749151
-71.41827229482037,838.6554022015673,549.6362162410202
-106.15347748721533,831.1849612252911,549.1406341615129
-113.71467320644665,749.185501674884,459.03850958278315
-71.59896600776005,748.7898517842485,451.82095822732543
-72.11718578719542,752.5220131237477,436.1020328042706
-79.93290267318606,737.1059434159474,436.03677096664006
-63.1003451739381,706.448175472766,483.48824522135493
-83.05710920650785,672.6629379043812,581.4187311671162
-66.68801272605835,634.1645719996126,617.1149169186216
-73.33125991036695,630.6292158892181,648.4242835218959
-58.73636766887776,668.9236385513913,617.1169563510475
-58.16369504366935,672.9290838359685,632.8103888687779
-63.163159692657544,703.5664574548904,593.3861206426253
-99.83602963295316,749.6780246057523,525.9624846405246
-107.38019609142776,811.5686804362347,517.7914986259325
-73.54713383265438,923.082806055075,470.82744872102097
-46.93162292933877,1123.6049007561198,419.52960491095337
-80.38922567849369,1297.9661760132158,418.4395282792799
-126.36017396358596,1394.9411878674166,405.6502475361108
-81.48123977097175,1355.6209306949877,375.05774143055993
-107.66163776620968,1236.3039366144403,422.16353188907533
-96.70030030642474,1170.4200720939364,418.6261363462549
-84.64694875416173,1066.1744836412029,454.47935839455886
-30.94318651119394,1030.9432884828152,455.40322128351687
-10.120856765562145,1000.2895994044859,506.83872678233655
-3.7490478399861327,945.8275761855476,479.64493481464115
-31.402976551625688,849.3185746406776,479.55621950411205
-38.00869817929671,748.2483824751573,420.9286555551591
-1.799697144284746,713.6065832878711,472.60889294509343
-4.043725431212494,690.8689511708892,523.6711823099632
9.451555832011952,753.0553247031352,566.8347498891059
-32.06405857249928,761.3252231903862,589.7324774515253
-5.797943232398424,718.4583930292201,578.4972442169345
0.6546241580968017,714.2224918805098,543.2864433828066
-0.24625738656931778,760.3391576124366,507.79522059010986
25.717140919682056,848.700626615613,460.7914017528922
30.770956442821962,825.8008596207677,500.19017707372046
32.49957936706215,717.1052296145983,461.3369499268354
28.83849224760749,647.6686738080793,481.13881906665375
-13.141796637995647,706.0270326768061,480.3138686503547
-4.781072027654704,740.8880708498825,492.0946500588887
-37.14418277393401,741.7374944552931,558.3262378080182
-48.839715907063066,683.8645205039438,566.1953878235688
-9.540638240377703,637.4154272865862,598.3368428566331
-6.612033671029352,525.158948264698,594.8351373812668
-8.329021633279458,474.52391999306593,555.7341191946282
-13.000565942498204,474.3475090882208,532.1174917020594
-40.16713148730709,544.0226784885767,511.851651685336
-48.42030662866525,582.5638724742905,488.0504555582182
-74.38564647458612,590.7491345158643,515.1065858371616
-94.86175197442553,618.6240969138289,585.3487174519332
-26.76306383933352,657.387589033972,652.9569220885828
41.370396618621044,733.7816685616394,602.6991888157526
3.7623143479169747,769.0689481117406,621.6404174718177
-99.62576414983711,727.5552813651962,647.7043638755335
-279.53990404470443,821.9402140384332,660.388613848766
-300.6908577342926,883.4066679243167,593.1464873325754
-237.17273482789744,890.1255780516284,535.2062121111695
-250.56976643400145,964.1263836274367,577.9262031376668
-300.6928971667185,1018.57311110318,565.2174799753229
-341.66203545553276,969.05161293612,615.7913252741763
-326.77213931362905,842.3549326222515,738.1052653046657
-267.6581707310856,660.7281793476876,814.1709962117543
-190.54927013812056,466.0510979794324,745.3401518357442
-75.8059072160218,297.8845987161773,645.5853935849653
-25.617310702431517,130.46249228839616,572.3340794256959
61.213258350201144,86.84637465393382,530.611370855491
-79.3206650589141,146.38842010268544,575.4013857943335
-218.11321909112695,376.2915980482632,635.3403047931761
-318.043368530538,594.3936002610475,707.6748940769785
-335.73034624464015,683.762548882646,734.5811260726141
-357.21474713587213,665.0415789285842,785.3425991546553
-367.59953704883935,522.5352184487058,848.4620130217761
-376.25794741323494,406.4986514253084,844.7991923847593
-445.17750709977423,464.0779471073201,733.6827560889805
-492.3230664905957,665.0273029016026,665.5799890890366
-488.0341400988106,1108.2275802644126,475.76797377289904
-466.64763196402447,1506.3859727837746,455.1217796087349
-476.9396277016107,1731.7840445004158,556.2470364497561
-427.9422636680212,1678.0450000764788,647.4290404980294
-370.23448374317434,1367.6331876838676,598.3205273972254
-355.66069962729375,1073.8019609142777,634.8518607271596
-357.8357543095757,783.6080618763799,631.8732696690512
-338.7007795730449,590.3310508685433,668.1333584863333
-312.65314862873663,555.1335063451842,649.019797790275
-274.7492772761341,716.8778328991043,598.0217505468229
-212.87799605369827,824.5894367597499,582.8861027975915
-197.73724972340202,863.020501394462,567.2844447390291
-220.06495592276673,762.9883803337532,610.4592291965147
-223.11696654820966,619.3327996818485,552.0284704766664
-229.97761722912517,584.8470170751481,583.4387889850256
-285.89987406504775,678.450847129244,617.60743984949
-302.796571714092,764.155955397613,668.0844121081103
-309.68577444897085,783.7304278219373,687.5385580193033
-285.4379426205687,782.8381761355815,609.4130003619994
-302.2958910535199,732.3897559309245,577.9333411511577
-306.96619130895874,654.976979906492,570.2752723916934
-316.63514044041546,588.8922312920315,527.1820652312462
-355.22324137192624,523.5233234590814,538.5988079517472
-413.8416278749624,446.526591649544,530.1310845191783
-419.8294014775688,419.98439834194147,585.0754335068551
-388.75660903570537,396.6369759295988,597.3936053596285
-411.9969612456854,521.3625448037811,679.0422825327712
-434.2767407830401,718.7092432176125,662.3444295452576
-430.3997797412981,896.332590640025,626.4810103348238
-406.5985836141802,992.8721836712845,626.5126215374262
-428.54797509853006,1024.2437529635504,653.550396924536
-424.4487159223589,1020.4096200027534,661.4735918993745
-413.45821457888275,881.1490162287837,673.88149877889
-406.2936884664998,726.4774413280785,690.2091947810925
-413.0431900802007,591.6107947158307,745.5084050108856
-402.21788276322707,544.9944680395447,734.0539327905045
-377.64374174667194,571.2164704562721,659.7655672426364
-401.74575415661826,547.978157678718,635.9347993453423
-419.78759311283676,606.3630291689824,659.0150561098847
-412.1631749884008,652.625514319365,647.1996043501094
-397.70461880458674,690.8852666302969,611.9653500430832
-398.0054350874152,706.2574885409392,600.1356222563262
-430.032681904626,729.366297359445,560.3320195989456
-449.46439405913344,744.9220681884232,552.138599827668
-469.1133057670051,729.5274125210955,544.0471516776881
-454.81688446105454,686.6473260491606,520.8577852783571
-455.03408401441885,636.3875533439044,524.9488867248245
-415.70770854471203,613.1176293637482,553.0889753381634
-428.19719272126576,713.3832654372288,505.4682281920942
-466.715952950294,876.880484161258,582.8320578383036
-498.0100238103737,965.8252308382579,550.6661296161279
-474.07014627829085,965.8527631760084,574.5723565131824
-439.68735500910105,845.791376259987,591.1906716360837
-422.1074474973615,683.0191757633851,576.304854359032
-376.73517460090864,558.8626085360445,577.4041084366221
-338.25516358797347,531.5178985688284,581.9969102598748
-352.9074658522534,639.9616586703921,581.4115931536254
-397.7331708585501,764.2548678702718,596.0190279045343
-420.52790708345873,810.8579382357891,595.5203866763881
-424.4905242870909,814.7216429667625,591.5230991215145
-446.65609560859224,776.5210341961833,626.6421254964745
-458.8702564076418,741.6895677932832,614.8032202638007
-439.7383408197499,664.268634039147,627.124451265213
-402.34738672227525,617.3412939179027,604.2950446890632
-403.4395027863746,655.6867023907247,564.9034073817257
-399.3137309886659,713.6534902336681,560.8449368540736
-404.06764797356897,721.1810353178712,533.2758893200023
-411.63802113871714,701.9655030005151,541.0767183492834
-405.23930190228066,670.6826490187781,509.8805402456497
-421.94429290328503,725.5403221283518,572.2392458178889
-432.8236451795466,764.4200618967743,583.7192109435945
-413.583639673079,779.7117262265912,580.0308974012532
-379.91159060433483,771.4673206446647,553.0910147705894
-349.7106555245675,740.176308933224,541.8751561440451
-348.29223027231524,728.947193995911,585.1050052770314
-359.9883752351721,709.6918927462488,584.9948759260299
-347.47441786950696,729.1521569547197,608.6645286616736
-371.27663371283774,729.1592949682105,588.685228900797
-383.2735949585231,725.2772353454035,576.7443520468254
-382.9187337164068,736.9519662677877,584.5594571030882
-331.1518204483693,716.6789882375735,526.5335257197922
-353.04410782479243,659.2363345281009,573.4955361922778
-395.32358144728323,655.7295304716698,576.7983970061133
-418.68935875145957,640.3991169257596,572.5757521681717
-370.8585500655168,705.0960317743572,494.5817379023418
-384.1740043745826,732.7752086594302,549.2334283368939
-384.60942319752417,728.8044337260941,537.4659032391286
-357.68891517490687,682.239092860457,545.8755028475575
-346.83607552018276,620.1822232872591,538.3979238577905
-389.38781337153875,616.6070982445586,533.8489698316959
-399.99490141893517,655.5541392830377,553.1817695135444
-395.8150846619386,721.2585337500574,549.0978060805678
-406.9677208832782,779.3782790249475,548.7347871087477
-414.83891033125485,794.8443148271837,540.7147190936763
-408.549300729607,786.7059597314069,501.59024743413914
-424.8708784345317,760.5604360306528,591.7005297425727
-413.63768463236687,714.0460809756645,592.0258192145127
-361.4057807712114,643.6846425639745,557.7235855261482
-354.6246679549082,608.6359766077102,538.3204254256041
-315.4074021199901,550.5804734542378,570.5006296747615
-348.1800614888877,570.6372716473006,620.9623061901873
-355.1508415208048,578.6053341355101,640.4541816012604
-374.0094731636186,598.1655305328527,647.9552140639261
-374.58765225637705,864.4919518897891,576.4047865479038
-425.47658986504064,1003.7076881503879,524.1524883624887
-354.98870664294134,1060.382495551488,434.75090882207485
-337.4383709013782,1009.6026675776133,395.9394900399219
-380.5621695482148,982.7117313251723,379.6852136050538
-355.7229023162854,955.930924423733,435.09251375342245
-383.6060224439539,968.4938281676211,517.0491452228846
-363.3024529273504,960.8816466377409,548.7765954734798
-293.8475422289977,870.5480464786651,459.8553022693785
-319.477089525985,843.064655106484,392.8456710497469
-356.4570979896295,851.4762941473389,435.4341186847701
-371.6325146711671,775.4126026726763,568.9006949365993
-364.03053030341664,586.0941300036201,604.9741756869064
-379.6943910509705,421.0846721357447,742.6582981956122
-399.50645735291874,363.1688701034502,738.6324585867753
-399.91740298674887,478.9219560196398,702.9138390785845
-408.0363834744791,633.3549173265081,659.1007122717748
-426.7318605232164,656.8185873871303,670.5154155598498
-416.00852482754055,647.7991974833404,537.2690980100239
-465.6666649671397,613.537752443495,556.2643716253767
-453.2607975200502,617.5228034038129,579.9839904554564
-455.97018349793257,664.1829778772569,603.333452300225
-443.23800686269016,733.9009753585578,622.9120035894011
-412.68424997323245,772.2137529125645,607.5428408273978
-324.56547342874484,809.0234687686418,475.3009437473552
-334.50872622149257,820.1077840037119,408.3963432976603
-408.9979758633173,560.733787786859,757.4462227162181
-370.4832944991409,609.6393773612804,636.1948269796517
-289.77071680951195,611.827688354331,519.658599011895
-331.2894821371213,774.5723565131825,510.6381893918923
-341.2449715244248,983.6070421601669,513.7085549091688
-335.40301734027423,1053.591185573055,556.7303819347077
-334.17425930363584,995.9700815263113,604.0390959196056
-346.6586448991246,864.5235630923916,604.2950446890632
-377.64782061152385,725.6922598440855,627.8474300602143
-407.8477359750782,699.0542132124631,651.0327175946935
-414.23523833317194,628.9344475432488,592.3042017406556
-358.88708172515595,569.9438646224756,534.4628389919086
-332.3754799039428,542.5858983444908,527.1025273666339
-332.5671865519826,573.4333335032861,515.2218137692281
-340.1936441088445,662.3362718155538,499.10927788796386
-343.14980141026757,751.4156210326668,506.61438921548137
-371.7406045897427,759.9384091407362,568.9506610310351
-362.7793385100927,764.0550034925282,604.3929374455089
-382.15598598909924,748.7286688114699,604.1543238516722
-414.51871944037975,730.2687462079303,674.3750414259713
-418.42627196851123,703.2513651450802,678.3325600485385
-403.1203316117125,668.3485186072717,682.6041512647032
-428.785568976154,641.8522125292532,725.4791391555731
-399.54010798794695,668.2506258508258,674.8084208164869
-311.4192920110334,647.1323030800529,554.5369723605921
-331.5586872173474,620.0292658553125,534.7034920181713
-348.39012302876114,573.4496489626937,503.21159621277405
-349.31704506635805,557.7694727557322,479.7020389225679
-385.31608653311787,589.5988946276252,545.7745509424727
-406.01020735929194,644.4524888723469,604.1482055543943
-405.3300566452357,683.2414738978143,615.8015224363061
-387.01697317636507,702.1633279458327,584.6155414948021
-360.6430330439039,713.3904034507198,565.349023366797
-366.4064690796552,770.8687472276466,498.3506090255083
-390.89291450189415,847.9429774693705,442.7791345668501
-409.83312344174624,855.8977836468111,450.3178965293959
-410.35113927793896,859.6299449863104,434.5989711063412
-417.97657711858795,851.986152253828,438.4351434995641
-382.8228803923868,835.392310320038,344.8272345806163
-387.79399693065426,831.2797948330981,313.3689894102472
-368.50096618111183,873.6194317121547,305.6660531374119
-357.15968246037136,919.8176747411196,289.98179806559835
-382.8524521625632,966.6899501868631,316.91148353413246
-361.5403833113245,967.0539888748963,376.0988716840104
-353.1511780271551,967.1661576583238,395.84669586454095
-323.19599455471547,939.6756282726519,376.76576608729795
-300.5919452616337,885.3002809318167,373.3629730845906
-300.6184578831711,842.8127852018783,381.3544890456986
-301.5729122585185,842.5741716080415,353.8690582410916
-320.02263769992817,842.9280131339449,377.1389822212479
-342.5981349390465,862.5524516527051,388.50881799595174
-353.2582482295178,874.4535595743705,411.8562404082944
-358.72086798244055,858.6316428138049,368.65698276169746
-378.5869792436765,792.9782341574341,364.65663605818503
-395.44492767662763,761.8391601617271,329.18784702217374
-383.69371803827,750.2123559013528,337.2517628344032
-383.8854246863098,781.0597910601481,325.37104923699735
-359.4295707504602,835.2832006852494,353.02677264917173
-386.1043271657498,858.7376932999548,356.4734134490372
-401.2175411582957,862.7941243951808,364.08253583027846
-392.50304640218627,890.0205472816916,387.66857183645794
-406.90857734292547,936.7347667144235,406.91775478884233
-388.0764583216491,913.3057670050425,399.42997863694535
-387.665512687819,816.8610075815901,431.15844860375364
-381.2127484920947,793.3157602239298,399.9377973110084
-359.1012221298813,804.4694161614824,368.83441338275566
-363.41972029184285,873.8967945220846,341.06346203851473
-362.6865443347117,997.6617907236418,336.7317075657845
-363.61448608852163,1039.9065939948914,301.25374108385637
-393.0771466300929,982.5618330418646,352.02643104424044
-409.2059979707648,848.331489346515,469.9759856831844
-416.41845074515766,686.3148985637298,517.5100569511505
-418.4884746575029,566.0771007428633,482.563362616184
-423.4351180066588,681.6894658216619,427.15402303538934
-443.86105346881965,910.3965166494165,457.47324519586203
-419.62443851876026,1049.5225178832732,461.29208241346436
-378.90003212106075,1064.226825674415,410.83244533046457
-372.80110945123977,1009.6995406178463,375.78581880662614
-346.34253287310145,897.3665828799847,384.41057853599347
-323.2469803653644,777.4632519769749,408.7083764588316
-319.82889161946235,734.8431931393494,404.9792742679713
-331.08961775937763,738.8690327481862,412.6465204733523
-330.95399550305154,758.2130493083775,412.58329806814766
-339.77861961016254,754.1301055916139,381.0679487898518
-333.0811235233235,784.712414535035,345.74293973987045
-351.121942763329,804.4785936073991,376.80349558717813
-354.01997624061227,785.4384524786752,408.22095210902813
-364.2171383703916,766.5604462278149,451.3029423911326
-357.082184028185,723.8761452687718,443.7040171720211
-330.5899568150184,726.4121794904479,318.50428025880404
-347.23886342430905,711.7700743882979,396.79707137503635
-373.8585551640979,723.6528274181296,404.207349094747
-424.80969546175305,802.0598267502155,473.8233749547502
-444.37804958879946,894.8193317799659,445.7444693141899
-440.6071390332071,902.4926962826246,441.85017309682723
-395.34805463639475,917.3367051949444,411.08125608643115
-392.55811107768716,920.9016330755152,379.7147853752301
-396.82154456414787,959.4479256422939,359.897620492217
-389.44185833082656,970.8922007005452,348.19535723208236
-344.37142143341515,900.7265478017468,329.4835647239374
-324.80306730636863,846.5867549061097,349.58319099794534
-350.3591950360215,835.5656620762444,392.4082127943794
-369.97955468992984,785.4200975868417,392.28380741639603
-385.17332626330096,700.632733910153,415.8892180306221
-392.7161670906987,665.976658695885,427.6669402905172
-380.20119000882056,646.8172107702427,459.31689210892614
-379.0009840261456,662.5657079634739,490.67826423906234
-370.7229278091907,724.4400483345486,494.5185154971372
-363.5084356023719,789.9088883563705,466.9331525036583
-324.23814452437887,836.1387425879378,479.13915557300413
-324.92033467086117,835.9684499803706,459.50655932454004
-313.96042481377435,866.6231587749131,436.0194357910195
-314.1786440833516,893.60179062167,424.15095878816936
-340.9890227549673,878.403940183447,431.64995181840897
-327.23814962295995,854.6955382317102,388.76578648162223
-350.3041303605207,823.9929027751577,396.37286943043756
-372.49723401977235,781.9234906925403,431.5041323999531
-403.8412709742879,727.9652072828133,427.2916847241413
-441.2026533015862,701.5239658802956,466.06741343884005
-479.3543156939424,659.4361989058445,485.2605119995106
-491.59702854695547,659.3546216088063,465.45456399484027
-486.26289303686787,670.2859794119298,394.8545119893134
-480.7645832164909,646.5010987442196,336.1474101757481
-451.89947637572465,618.7372854134695,285.65412245772006
-437.11359128754475,664.8029653347475,258.24720980151227
-460.78222430697537,761.3925244604427,222.2461289023265
-475.6252135030822,862.0640075866887,217.75937756522362
-479.72651211167937,962.440792727384,189.88645459968492
-484.12556785446617,981.6430687339715,170.13251212187652
-471.9379196769539,993.2974053320961,185.9748232067016
-460.48650660521184,977.732457057201,186.19814105734375
-440.9997297752036,931.2966201506122,202.34534728984926
-391.17639560910203,872.9127683765608,207.21347249060588
-377.17977086976697,826.0955576063182,176.1845278459005
-407.8711894479767,826.3678218351833,179.64850382138653
-446.62448440598985,853.643191099917,167.20184772577795
-482.6714525347596,950.1165025773329,107.46687196953089
-520.8802190350426,1016.1482259487185,102.74762533586903
-566.4951843901842,1086.1813157398296,105.752729015515
-607.8202036373278,1082.9080266961705,136.5410206339576
-577.6182488413475,1012.9993422830427,133.30546109017862
-556.757914272458,884.8108171495874,94.80373012190708
-499.1164159014547,725.9859381134231,123.67526117481505
-422.12784182162113,655.8569949982921,136.83877776814714
-379.35788470068786,651.7628344031857,149.26707897192213
-372.2249697909072,724.9356304140558,117.73031565315374
-413.1155899313222,841.4963315709239,136.3472745534918
-430.8311196993877,965.6151692983844,155.28646377713085
-446.22067678565065,1085.4573172286155,131.10389378635927
-449.6112331938022,1131.946179378279,134.82075938266382
-448.3569822518394,1136.1270158514887,170.14780786507117
-444.0119714683404,1109.1861135046117,189.92622353199107
-467.0494001519378,1043.7305297935586,205.50034925280298
-470.0555235477967,951.2881565060445,248.93822049323677
-478.46920202107754,831.4511071568784,253.1414907231318
-489.7533816338913,696.4437397072396,288.74896116410804
-451.57112775514577,587.9245206059155,301.4607434750909
-407.2930103552182,540.7320542692969,255.1880611625785
-354.3789163475805,489.8512743903372,236.52929389750835
-330.931561746366,497.4777319471992,244.7043587769524
-303.8224062243478,574.5417650267931,233.07653480036507
-273.5704853339316,705.4641493272424,189.91704608607427
-274.4994468039545,805.640050373981,142.46965069621126
-295.07833969806205,909.7316616785549,82.94096352984965
-288.79280896126613,1075.3723238822636,7.908500864209491
-308.06136652169704,1172.0720123589606,-12.32949070273743
-292.02225020776723,1260.9300831578573,-12.388940157954043
-294.35026232199584,1303.8295442378387,22.753029831797814
-283.03447150657973,1268.9246582676042,23.040283888993695
-252.66936211652302,1222.2216557132153,19.72804168599879
-237.3899343812617,1125.521967236518,35.98160431951788
-207.76004038076206,1051.612936119878,17.05169451341692
-160.97138166448278,974.1501940010097,49.41085895795201
-106.63988212080578,912.0392794685241,73.98194082586816
-76.54795470420582,865.2740742251433,62.816558151866346
-61.86985361973764,837.9375219876309,47.43016218586368
-61.62512172862293,872.7557320797622,47.31636185649534
-69.46969658344084,930.709263611937,31.30487985193721
-73.43343547490734,992.5020266859734,15.338571275614
-69.5544350007393,1073.5776233474226,-0.5753034930378876
-35.33795944588621,1123.4009575135242,-23.778558427189715
29.896957676678582,1180.7497973314028,-42.61801940519953
68.3492324086207,1207.4663621114246,-49.981390179113156
76.76382862649326,1269.3733334013145,-42.21492558620936
80.4805922511765,1288.6255755023378,-50.073470553145064
84.77023244431076,1292.5616800844327,-38.24863740421041
100.75713928813613,1277.1435709442064,-18.333987651236665
99.3671641182259,1234.3154899991334,-49.607358272192855
83.16285377779364,1218.7852120754794,-69.4207502052179
90.54264198273621,1210.9232000734196,-77.13296589559127
82.31791692372013,1195.4031193118956,-88.97768351067899
51.4902642594566,1195.6376540408805,-89.44022678488578
28.45150994478237,1188.1121483891036,-85.8353260287662
25.416528580096163,1169.0434552064162,-58.34408284174515
48.89274115013792,1122.6055788674014,-38.21264142189229
53.592715147374484,1068.7237741736476,-2.638913390403451
61.382837156419384,1003.0326360173965,13.397847379074406
65.23665064012687,983.69371803827,17.445406943247697
46.679141195005435,949.2630001070703,44.75595641732907
35.47388761707617,922.4077539220837,60.377193027180546
23.532398933376843,887.644608505453,56.391020379028525
-7.239689394441527,837.6917703803033,67.87241310743221
-23.280121142286106,806.7586790596177,55.962637597956494
-73.40182427230502,783.9670019833482,59.213390913308835
-95.48581829676802,757.3728031488838,94.29387201541812
-145.14436632285236,742.4217240342014,109.29930200425224
-198.9017656386228,731.2996792992511,116.38021138717096
-231.97320185792296,728.1100069850562,162.99143948239208
-292.2924750042064,705.749669866876,205.33413551008758
-322.4097933545095,652.0993407534684,236.46097291123885
-349.87381011864403,582.6709426766532,236.28354229018066
-387.6971238904214,509.770410894648,271.28428158443506
-409.90858244150655,458.97528717757854,196.55539863256058
-434.0646398107407,408.690021566998,176.7402731819735
-465.3556515221814,401.08803719924754,164.52305323428493
-518.5409900424712,393.97245746508753,187.29841485114696
-586.5397459886914,433.46810582614864,217.54319772807233
-675.5885037194149,477.52494480786004,306.32682924342157
-729.5641223047627,512.6918978448299,297.55115151453356
-779.7412979967676,540.0916724875468,288.85807079889673
-852.303283996064,536.9591042812785,307.4046692805392
-928.9635094553188,537.6565901709555,318.0280727873433
-1013.9293234692788,511.2306445116325,316.8441822640759
-1051.6231332820078,496.2928217077188,343.80241978657347
-1128.030469120444,473.8804790626769,366.2810439854589
-1154.6552594412976,466.45388588355866,377.6814712465521
-1224.0163562480564,447.6798906864221,380.6304905344843
-1301.3006480296535,417.32599817470805,379.5750842540522
-1385.6107845186687,406.5108880198641,394.0468967486349
-1488.8672482448137,442.26927646036114,408.0781918392112
-1539.2106376795339,485.0759433649616,391.4812907567824
-1554.3738177665157,520.0134602540114,391.1356069605829
-1519.4485374720218,554.5634849821296,391.5424737295611
-1485.7775081194904,546.319079400203,364.6025910988972
-1446.946714729291,569.2677927732713,369.03121861186037
-1393.1566844947054,622.8773332381598,353.9577735516206
-1320.1959894561346,664.7305654836259,339.2106376795338
-1204.947663065369,690.782275292786,325.15079053499414
-1077.564713740166,720.7496953597814,326.95772766439103
-984.1780832394346,731.8472669056202,351.86735531501586
-891.8590956136908,765.8486843111564,341.3612191727043
-819.1890196958187,745.8377733476774,330.7439339631781
-788.224317172531,726.3244838961318,339.1219223690047
-750.5621185624042,698.7748109701071,320.15622052382827
-701.7207711094003,655.5918687829178,293.5610019731509
-656.3240250238359,612.5425094196286,278.68844100686783
-628.4500823420842,624.1458602071044,302.614042511969
-617.7073720383618,623.8511622215539,279.22787088353317
-633.1764669892369,635.5422086033458,275.03275838334196
-632.7675607878328,674.2638923587566,278.8322209928977
-655.6173616882422,732.4387023091474,274.3699428449063
-659.2801823252589,759.5498972635917,274.22310371023747
-670.9773470043289,778.9143081480424,266.13369499268356
-659.3087343792223,813.6091325784035,262.2669311130712
-678.4946949264021,844.6737672905631,257.9494526673227
-678.6578495204785,840.7702936272835,254.0357818419134
-686.6646612247812,836.8933325855415,246.07995594825962
-672.0969954061786,852.0096057267262,218.77501491334962
-691.4736428851851,855.9926172546182,214.54625177813017
-684.502862853268,867.3339009753586,191.0652465418874
-672.6965885394095,863.4447033390608,199.10366944879243
-668.3260848505861,878.9923164383354,210.8905691546043
-673.7071273064707,894.0861558228345,163.66343246674452
-692.3475396797072,944.5967787164833,171.06351302432535
-697.5654275415152,963.5940917642622,127.75004716187486
-719.7585312007669,979.4527183084949,150.91188122345554
-732.1103536885686,1002.5146201812037,123.17661994666886
-755.2048864800927,1045.1785268159872,114.83840047314833
-794.5853069090873,1080.0222298134431,82.73355325212995
-817.517704822748,1165.2093222456192,70.32880749287474
-852.9365277643233,1254.1183788551648,30.252124833658794
-895.081398846701,1366.5013026874622,13.543258911045056
-940.7524485935566,1448.0989940499562,12.583807926254124
-1002.4901469920923,1494.903968225643,-0.27268537166106677
-1081.8373246725437,1565.4377386773263,29.697807100283995
-1174.2644022168631,1612.5078390683875,20.305303034165593
-1220.4473495026336,1659.2210387849063,11.606613879357377
-1283.6901490315247,1724.9519458734637,-48.431727450250605
-1345.9744153202166,1829.54423783861,-88.9637133985612
-1449.6387655315527,1923.1235947035943,-98.68140496499825
-1557.8612472149002,2051.3223169991793,-136.05665543279306
-1696.8383698816622,2133.4298664681623,-161.96254582349735
-1802.0220972503355,2087.603819856934,-186.9313170144749
-1817.4096149041725,2072.277485175876,-183.18589936420696
-1841.729846583696,2056.706418603703,-214.89499472296865
-1811.4238807339918,2040.890620140415,-226.16081944394878
-1783.9527259563663,1975.159713051858,-198.05540118185112
-1731.722861527637,1788.9391382378287,-208.4187770543458
-1601.9231847776766,1575.2168171597846,-197.90448318233038
-1493.782280391367,1493.3438024197867,-172.4605242361051
-1434.801894632724,1543.3914741527435,-148.19841638072126
-1447.7624876996733,1539.2718206523127,-187.6247240392999
-1391.2396180143069,1453.5442786272583,-206.1121789805897
-1341.9873249274729,1313.9145375841904,-200.97892756445884
-1293.6017906216703,1127.7347514186804,-211.39940754488026
-1183.0747502969925,894.8468641177161,-197.18456353596798
-1015.6169538017571,653.5738503974345,-205.63597150912904
-851.19587218877,431.84573733130077,-194.57612946317042
-747.6661245175468,241.6798804892599,-168.83543309896856
-671.6034527590972,117.25104903305412,-171.20117471307736
-618.3069651715928,4.676051454880107,-166.09851478333582
-598.7396307607593,-30.15443602045551,-149.98903805071052
-609.5894112668445,-64.64419552038669,-122.56377050266913
-592.1308499844494,-44.94083096674196,-67.42363600210062
-605.4717971988396,-59.749353754850034,-4.779542453335237
-592.1379879979403,-98.01287901576993,54.41858330826532
-588.0642217270935,-202.25867141174612,82.30364089673846
-575.1668510653486,-283.1119699387661,137.71471399509517
-544.7191446620407,-356.8221563938756,142.343205885802
-518.3431650971536,-422.8324657247888,139.03728592332757
-520.0063222405205,-446.4215608796073,95.92062528998181
-559.1409910621875,-415.37935992413315,71.68197090749645
-610.0289089546379,-353.40100849933464,35.38904722815641
-680.1833449750935,-291.2727587912284,-1.1929659975628784
-739.6307607592809,-247.76248769967322,52.714433573136596
-733.9223893990304,-235.74105326487643,103.7795781434027
-763.277979738239,-219.68664120775188,142.5318533852029
-798.9221599628823,-214.80220054758763,224.39874982792293
-855.1707259869579,-167.62299052173782,258.7183186919081
-919.6167906471629,-132.09301851294788,281.18062743138586
-980.3643446028971,-124.6623464689777,193.90413647881797
-1010.6652118715363,-113.70243661189093,95.29778262709489
-1079.6959206252902,-71.59845614965356,-15.767565886413811
-1211.1271433160152,83.78600235554445,-61.43127367653583
-1493.6701116079396,283.6004140047825,-31.015994248800563
-1816.4918703124924,525.75548224929,-60.21628180877263
-2281.6252237002445,870.4838043572475,6.2212376295676926
-2849.403211086355,1306.1850886898178,204.25119689190498
-3245.6343399631887,1926.4580667200319,423.85218193776683
-3504.2751602229105,2584.9805998990487,716.0273895774807
-3723.769075066409,3477.935890441691,866.7118740854421
-3681.481443714215,4006.6689440328764,755.6719165056365
-3109.7979432323987,3978.443199257647,697.6123344873123
-2418.4099565091037,3526.413199206661,513.2619192078845
-1887.2193868446413,3051.8780623352523,267.7193537038643
-1435.1180066587472,2614.185272238736,177.8527835703324
-986.379650543254,2193.0832649273707,209.5425043210475
-641.3617290308108,1896.4580157342214,223.56054310085506
-156.16545915271783,1567.2222420500375,176.99418251900497
61.411083295518864,1464.598002375939,141.3540811592134
255.3777283781924,1311.8241193475856,101.60370768815041
422.53266915817335,1163.1596926575337,65.36278953567222
528.5240117675252,1007.3745876522565,43.928252767254875
649.11055253323,851.2631734588265,-0.8342308535534563
735.2888091244208,695.4872458994663,-38.26403511902638
844.3964044806331,589.6906690867933,-91.21749017248501
943.4424599633924,522.9777752851383,-109.13206854532385
988.183528524012,522.2445993280071,-151.62976143739198
999.1985030565995,541.327568537676,-171.15222833485444
956.3459489224151,572.4340116145678,-191.52207940530153
880.4760035282183,608.086349568915,-165.30721500206496
807.9129978127089,701.5015321236101,-166.7093247949096
743.6300877465802,798.8619967063167,-152.30175442174445
660.2693070518476,884.8342706224859,-130.29321939704184
606.3467137095747,966.3565029852193,-147.0736693978066
545.4533403353847,1036.541530492064,-140.3741338785416
465.40153875176543,1141.653877725829,-138.00227396715496
392.1553231735609,1273.5133812260049,-167.01727909122894
299.83327639917815,1432.6095047748213,-196.40855949789176
168.40307342466593,1587.9938613083982,-242.07247123125637
-4.350721194291629,1720.8017008866434,-252.95794180479575
-173.9350338800712,1969.2657533408455,-307.35572290231636
-376.4578117909786,2330.428841653368,-335.1562460167336
-623.9969816400097,2788.8014765490766,-348.25959935349994
-903.7000402787905,3231.6336363590017,-397.1142031172725
-1166.514558998231,3458.449113611682,-358.6443892664672
-1208.6798244048682,3412.490503892767,-343.4230853553457
-1133.5573309947843,3277.2353454033746,-259.4239623112888
-1170.664803985051,3208.373909540975,-204.80286336312608
-1311.7425420505474,3190.539072975991,-159.760978519678
-1478.7618605742023,3107.523976077458,-71.71633534387381
-1561.980900715331,2981.130151478844,-1.89329689547399
-1570.0060673114674,2799.600271244513,26.07118638882799
-1638.1537018247825,2521.380899695615,6.365823191405832
-1684.224480327125,2192.5224210102333,-32.460932122590286
-1669.4997782117239,1797.321205508507,-81.9272636425283
-1550.4071216980317,1351.1953623306636,-110.0355371100223
-1435.6074704409764,997.6709681695586,-169.91735200093817
-1303.3196861313497,706.3380461217644,-182.6515680686065
-1204.9782545517585,461.8009208037404,-184.27801542830633
-1114.8863271351584,236.4956432624801,-205.71550937374133
-1058.312471639143,61.95673344108336,-204.27974894586836
-1017.3657671070143,-104.79419577531573,-210.95277184359597
-979.729061402212,-213.4500568491789,-213.94767836111214
-937.775896967874,-275.67721902994396,-213.1084519178313
-909.2187444234271,-321.831614261751,-157.58082525633117
-894.4858845783219,-380.04925229308685,-165.01251701651432
-877.5708320374441,-418.4109762253165,-113.60964243650994
-897.2462563668532,-476.2931276225827,-113.70957462538178
-858.3828320578383,-526.7129957732764,-93.33421708738459
-834.7713031463345,-553.801756971035,-73.26610004435766
-843.5143499564073,-565.587636960634,-100.82964111087885
-881.7761416997652,-545.9122126312249,-97.54452335914917
-939.9325967583222,-537.8309616433747,-110.21704659593236
-1028.2614348426835,-475.2815691393086,-115.67558748400322
-1101.4260731238496,-409.04998139017914,-128.76874365863983
-1170.1039600679132,-331.10593321878525,-126.1358363967308
-1173.0407427612897,-276.7774928237472,-110.66470201342968
-1168.4214283164997,-245.7199961250784,-95.0016570388461
-1202.1434434796797,-206.59450474932828,-76.01576481265265
-1292.0926106264628,-97.11134791187614,-26.712383943548513
-1410.1349594407877,27.74708998485722,-13.203285525638218
-1527.1677892042646,179.89221599628826,23.776620966385057
-1579.081541606971,373.91565927202464,41.967644404562215
-1863.3988161094771,655.3797678106184,115.25138553940441
-2404.5214216883446,1058.9039070426702,199.97552681088857
-3032.309708208206,1683.7350165448959,294.4287804703951
-3222.7723024682236,2321.1188326288798,446.4103440012645
-3253.639112235065,3045.51503316627,518.0719205845014
-3143.0304946133497,3798.4326961806532,442.6210785538385
-2671.4729290838363,4217.107778905131,514.9903381888821
-934.9849336929533,2248.0867574554004,347.48869389648866
-703.49099845513,1990.496244895046,300.8050659501461
-489.11299985214123,1845.5843738687527,292.73197269199983
-297.09125950248045,1712.6235768585607,303.906022953812
-93.45546134510766,1587.3208486078327,315.22793206650596
348.6430126495797,1292.9899608938833,240.425629547297
562.5040151325886,1151.8102512070893,216.63361086609598
865.9042588447635,920.3581243339979,127.76738233749548
982.4211122044735,675.3978167875881,95.01797249825374
992.155323173561,589.8895137483239,60.13072761850378
999.0995905839405,578.0526479480761,40.6515986600929
974.6416972156649,601.066623158775,-2.9632647234274705
898.4148511469259,760.2116930858143,-12.49121769411573
807.9211555424126,850.2485558269134,25.095725859493307
723.7976271203725,924.4431074831875,27.510005965339847
401.8599623724718,976.5903748986659,-48.1314210255286
310.30270275782254,1012.2936986636621,-30.00025492905325
213.39193302503915,1105.57631811067,-67.08814936803088
151.97850438223043,1256.7288523603881,-92.06569011844005
29.48193317799657,1470.2880188443557,-114.2439059209822
-73.69387099570191,1710.7472990266813,-140.1487765954735
-186.5805346372105,2195.061514380548,-163.0964702523288
-344.237838609515,2772.7817348431936,-163.48192298083447
-565.4316203800483,3296.446798855879,-207.80796704277202
-759.674302641575,3622.939535927152,-211.81953062462722
-883.1231868171088,3739.7174366373847,-241.53508078701702
-982.4149939071957,3810.230812764808,-231.4857775081195
-1096.3274920589602,3896.5090015448704,-202.08633937175287
-1215.4609372211717,3943.854425313436,-204.03093818990175
-1299.6894964131484,3867.40630082648,-173.63727674588165
-1391.0968577444899,3570.026461635727,-193.62677366888798
-1431.74274599379,3133.394176400708,-165.28987982644432
-1374.5570607699879,2594.9942131104917,-182.2406224347764
-1310.1415875961723,1986.9068438253637,-198.846700963122
-1262.1639397755605,1549.5913487276493,-169.1811168951681
-1222.9864428729486,1189.295019196158,-187.00167743317039
-1135.1378911249,883.3281497759175,-145.40745310580067
-1044.5361056018112,615.6720184772579,-143.14776197784158
-954.6654566034273,378.7266803648545,-168.47445355957439
-918.0637628547977,219.60608362692665,-190.9367622990522
-926.7497055569436,119.01005950044103,-198.57647616668285
-927.9743847287301,2.8458036128545428,-209.97690342777608
-948.4115370692336,-144.05123054254003,-213.71212391591425
-942.6919488306405,-310.67082031070754,-236.61189091075957
-870.4001876277833,-462.0823624785223,-231.09420648233598
-829.2638158800407,-582.4425262449461,-241.8460942319753
-803.4344042053098,-648.5904972646114,-260.85870302294876
-802.7522140588275,-648.419184940831,-241.22610677448466
-814.286224143821,-625.1523201093137,-245.4018446666293
-856.1567915649075,-589.9374404103339,-238.29850152702505
-931.399611488123,-523.2327043383827,-200.40482733655227
-995.0288834617327,-448.87805723667105,-162.36227457898468
-1025.3144549871772,-390.575782759658,-159.08796581911255
-1054.101043679544,-293.277520865943,-120.60081679268662
-1068.9889003890219,-219.6529905727236,-121.07294539929538
-1086.16092141557,-172.63387599231137,-70.46830467081011
-1134.0467947770137,-109.90297400233516,-20.37719302718054
-1189.6723141949597,-89.60032223032331,37.590512560354455
-1281.3346045795456,-107.98998638678857,63.7518418624097
-1360.5359628415413,-80.89561674985852,-4.24444637057507
-1457.2764399667574,-3.0166366700147353,-33.42874478032764
-1565.917005297426,125.07431181902079,-82.5835529972009
-1790.7440359347995,414.2393171980238,38.66101064073869
-2240.0513936971347,922.1507854364132,195.05131721841815
-2937.282354320793,1651.7669132680376,264.56333202469756
-3714.367291582753,2734.705531450598,402.3300515466546
-4023.1475580345996,4224.908607934412,632.0792523440726
-3766.454395741666,5495.097714306109,553.1470991623032
-3075.6170557733785,6093.497779567947,581.0995599924541
-2261.781546195694,5280.151733772492,337.0090703757145
-1691.301310845192,3997.3691321705173,169.34937007030945
-1152.8911503928457,2955.9533581804185,137.75652235982727
-668.6993009845361,2290.4865575910226,131.5556280687085
-294.9529146038658,1946.750419358293,95.14288773434355
53.208384106703114,1703.9763833725076,77.62936374806891
968.1185726012452,988.6097699010367,62.35013995605024
1120.6477237384838,797.7841566691991,57.429499370325246
1204.0095241494294,634.5744979172297,51.379523078727196
1202.4901469920924,533.7826882778523,28.14896014439182
1055.5184492155836,394.7545798004416,-71.69889819663189
1005.4534423070061,456.9378941840486,-84.43250243457247
918.5399703262583,566.186210377652,-58.63062309759194
861.9365430600665,640.3093818990176,-40.105438656421924
802.6257692484182,683.854323341814,17.72848016397037
741.6253256718655,661.3236936160666,40.43847797158051
686.7503173866714,607.4408692060999,24.09987100589906
662.7033696522259,553.3204509185094,8.223735934289488
628.0768662081343,561.3262429065992,7.67805519723861
582.1070396108763,619.6795031942611,2.867982440486813
544.470333906074,709.0260180591742,9.852049374659034
489.51068917520263,817.3229390260692,-42.356564168192
401.53365318431884,891.5470624525196,-40.0002039432426
353.9812270245191,995.846695864541,-99.93361647453516
288.27785227371226,1181.6777390852128,-144.71506579718866
212.56698260874,1414.3259930761271,-154.4839471175172
219.13905360138278,1839.7821886169083,-163.6695507640224
172.87758816721308,2385.666868910382,-166.20456526948553
90.05103679645956,3070.365517276542,-252.1717406045898
-107.04368974114504,3752.433297813219,-300.5960241264856
-377.81403435423925,4272.743495485207,-329.95467361433316
-600.1998643777438,4452.397097887659,-337.816685616393
-780.0308974012534,4481.153095093636,-309.21058669372314
-979.0172994855533,4351.740910504607,-245.0357665461702
-1130.0902958706592,4086.237400131544,-215.00614379018324
-1207.9150372451347,3727.480842081649,-163.94181499288752
-1223.7818215190714,3159.7946291547064,-60.22403165199126
-1183.6151998898708,2610.514293872016,-10.673981430967764
-1151.3207874248596,2115.329903687804,22.877231266538523
-1123.4009575135242,1681.828147226627,28.682475667021873
-1106.4736683780905,1291.0321057649658,42.0283175192344
-1066.2356666139815,965.7711858789701,47.65297017839936
-1026.9256066036824,624.8249912049478,29.768881320328557
-938.6956809919801,392.32561578112814,67.19644322984914
-855.8243640794768,198.0972095465832,53.39448231557159
-804.4632978642045,61.86516292515793,7.527952970688259
-818.584327981523,-69.99260705745593,-39.334227284546714
-797.3436392651927,-163.32794583267477,-74.02272947438729
-771.867049400152,-260.4599939836744,-96.86110955321135
-754.4268430095905,-307.40976786160417,-139.6124058674471
-770.0305405005788,-334.37208424895357,-139.755166137264
-786.0156118552208,-376.8769151545125,-147.70079486878802
-805.9367877919575,-430.9585842260099,-155.66579820835864
-817.1149169186216,-434.63568089000836,-144.0471516776881
-852.2043715234051,-473.0891792814061,-148.3676892720756
-916.1232429015006,-504.0763155613793,-208.0894087175539
-993.2739518591977,-515.087211229115,-209.2080374031907
-1035.8277291429795,-499.35299006286556,-217.74816068688088
-1074.1690587509497,-452.6652832516711,-222.40418491533808
-1072.0174575415663,-359.43976791258996,-179.5159407136994
-1090.2805749160011,-274.07626457556864,-168.3031412357941
-1136.8306200384434,-176.25284883217003,-86.91357395236906
-1203.193751179047,-97.7273584761361,-17.52932958757578
-1285.0769630811747,-34.557468656472906,51.674119092656525
-1341.4366781724648,35.765322510745264,78.06498651425309
-1376.6984648172415,109.26565136922397,45.89202225020777
-1418.9758990073065,202.3055783575431,29.24627676117737
-1496.1786134918652,338.03184573733137,-3.7650267930434964
-1742.4094874396458,653.8461146262996,50.350629419832465
-2228.6203749496517,1226.116971646791,17.589288900898882
-2941.4631907940025,1909.4695946118197,90.94797917739494
-3915.4145401334813,3492.1405372884733,557.6725997154992
-3859.1058108528405,4941.656936874469,883.2944991408892
-3090.759841536101,5731.661678554859,774.4000244731892
-2531.0172179082565,5649.36038300541,716.3435016035039
-2017.059852243121,4814.335170522044,381.4921507344506
-967.8432492237412,2850.2801670295157,164.43229849132987
-545.1178537013151,2405.4595606042844,117.32038973553661
-165.720200068321,2162.5529615108117,112.0494766306537
90.50256713556618,1939.9387150556004,104.86455619401121
501.15074974634564,1441.0119663697596,53.82918733716408
706.5705414183234,1156.8170578128108,38.24190727720476
849.4062702349936,953.9659312813245,-21.728215037754996
937.0315041324001,771.5203458877395,-11.950870072858725
1022.3368836452817,472.6364252828438,-44.986310309840775
978.0720225561226,379.8065598343981,-80.65781892899207
930.9570546516904,430.1489295529055,-116.85539914241869
881.8424232536086,492.5718772465623,-102.10316468926699
781.151565519316,583.0400799457511,-25.423870536829604
735.7272870960013,602.9123095042651,-6.548209633259065
667.0728536248363,665.4158147787472,0.06178878618080589
578.6053341355101,727.931556647785,-9.323510067148314
494.3726960786814,825.2695874738062,-14.83819652990573
427.57720526377517,1088.057593571709,-106.99168421428318
416.9925509730642,1362.5957895917568,-135.54883675873006
358.8738254143872,1769.4523614078203,-118.16879362473426
265.0334211988804,2377.142041369887,-172.64407315444114
99.14629358649489,3190.3759183819147,-236.74241458602074
-125.63107687130672,3868.609565957794,-305.1908653821642
-403.1957906114729,4202.84194908557,-381.1189346005007
-560.6175401385794,4285.306399229095,-383.75592072726164
-635.7237180892558,4313.430172383027,-333.95502031784554
-744.4101706495082,4259.997042822983,-347.1766607353174
-968.2327808170987,4002.895994044858,-306.49100355371104
-1091.7795577490785,3640.764175330006,-240.40217607439854
-1142.6531996145475,3162.0787934717773,-164.98090581391202
-1120.861864143209,2682.700004588723,-104.16809002054728
-1096.745575706281,2199.0282104490325,-86.47693146997192
-1088.1391708687472,1719.3231123778255,-72.95600434399108
-1106.820371890503,1293.8159310263957,-79.64952353759949
-1126.3683316932897,956.9108717044048,-129.82618937149795
-1090.0664345112757,658.6877272055189,-132.20110843152352
-1030.5354019976241,433.68836452815185,-146.24871898150747
-958.5974823206702,251.29376494521577,-144.5549703517511
-925.3037479669409,92.33948392162463,-151.36973380308262
-891.5470624525196,-39.46495490305048,-150.4193582925872
-892.5270097331914,-159.42957075046016,-153.9536946867687
-873.5031840638752,-233.01535182758641,-145.5716274160901
-847.1547368367385,-322.2048303957009,-144.87618095883917
-831.9579061147284,-372.5828901816625,-140.55360393202574
-813.1808517689527,-384.44015030616987,-152.00603671998084
-809.846379752515,-361.4292342441099,-171.65698786027852
-801.6488811163854,-330.46963030188704,-163.7898772771538
-824.1968460177534,-326.28573468003856,-148.44314827183595
-881.1265824720981,-337.2068953210322,-121.78674674837994
-904.137498534158,-360.17192415350814,-114.20413698867607
-938.6538726272479,-413.9293234692786,-98.84170435367838
-954.039350848659,-448.55990577822195,-91.10613716202782
-961.5016340952313,-432.9918983546879,-87.34583165505042
-964.9737678004212,-378.8000999321889,-87.58067229889923
-962.5213503082093,-300.94680650375005,-32.861884537533214
-980.3174376571002,-227.0530711303045,-5.905360138273519
-1074.393396317805,-136.91729591654644,39.47688558274233
-1130.5083795179803,-70.3951910183396,73.73353795638675
-1171.8068861435863,-31.17537589288901,96.53031361372132
-1236.5180770191657,18.7390189310315,-2.7228870205421836
-1321.4298460738378,135.21640927329926,-31.860115329903692
-1456.7257932117493,314.79557239220327,28.30140771823202
-1882.569480913462,806.1692830885166,86.98352648457936
-2681.190824593516,1501.50153212361,127.61952348661369
-3839.333513483198,2707.2139823487128,247.49124318702107
-4431.166606333458,4699.331576022393,541.9506151438055
-3671.263887260176,6132.277587147497,501.40363936716415
-2883.074240438886,6660.6741343884005,574.2205544197051
-2122.1110165041073,5819.979299760877,254.86277169063854
-1601.0360316723857,4383.290930134144,138.00227396715496
-1086.6503851977996,3156.449959976139,118.44921558330317
-599.9938817027222,2409.5078339698066,89.01255780516283
60.83086477033443,1827.4742139262644,49.8545374822187
290.18982017304586,1562.6131247673775,54.18364069279521
475.6048191788226,1328.5882538889427,6.730402329031831
635.4647101711594,1083.540250748217,2.1023897049451143
779.9921481851602,830.9075984153611,1.194923852691796
928.5637806998313,605.3269974965967,0.25677473958997216
1015.7515563418701,418.9096174534628,-1.73296691530747
1016.038096597717,182.4088756099178,-55.87555383336818
957.9091738769101,155.74023749190602,-60.58093232653353
888.7367245695523,202.6665578969373,-65.69990771568273
839.8137998195105,272.860762849699,-47.04644297492008
790.4809491518512,342.95299618116286,-40.172637954857166
756.6437060566045,385.91364023392293,-25.125909459397455
695.7248397770901,394.2987666532405,-6.443658129942438
654.891323744602,383.4296115391087,40.076784630837246
639.0683872678235,383.44694671472934,28.065853273034115
627.536416615256,348.78577291939655,35.85934034558183
615.3212360999934,333.26365272544655,20.03018359990415
626.5268975644078,360.11787919422034,4.4089979758633175
596.6522716727935,437.8335109339072,15.473173815727087
539.0383056395406,542.5981349390465,-1.4417155705567144
474.18231506171844,655.2635201623389,-6.717910805422852
409.4884593617597,771.8303396164848,-8.080200680150714
360.7001371518307,919.297619472501,-1.4592546894199345
365.4224429341315,1100.997792314399,-13.775346321118834
414.139385009152,1414.0710640228826,-6.2525531144682445
421.03776518994766,1847.3382857550746,-7.610855898803363
353.05430498692215,2431.3705495760532,-89.09178975491122
160.2035353561104,3104.7809394645474,-235.53914945470677
-80.04262413770249,3794.7107320032837,-308.1837324672544
-393.6359511148048,4253.450464735664,-337.97576134561757
-569.2086492329186,4436.754651180578,-329.4509338051221
-725.073292102808,4430.789311334656,-268.97156521340116
-900.8030265177202,4339.8510194612845,-208.50239378380996
-1043.5061922267034,4051.2815283506607,-154.72256071135405
-1118.0270530711305,3711.6650436183613,-123.29592674358727
-1115.559339835724,3186.072715963148,-54.76702033823988
-1068.5096337689222,2713.770757598161,-44.619620359653915
-1051.7658935518245,2180.0512917255132,-7.246725436311075
-1012.6924077029364,1727.0423641100683,-9.057884190829693
-1004.0136030142812,1316.8717146018264,-7.544156261312478
-1015.1223914384628,949.1956988370138,-30.017896019537766
-1012.5435291358416,612.8606608780777,2.5523190895973653
-979.0570684178593,384.44015030616987,15.598394966680774
-950.8710925749365,202.03025498003908,-22.610269561980903
-913.0426802220942,81.83671284281586,-17.713592307260893
-898.4454426333151,-15.034593872525276,-21.09272789382715
-908.9587167891177,-123.81190314735412,-79.75251487511026
-907.4485170776974,-224.83926723192937,-126.48457934156927
-896.840409314088,-321.7153666134715,-133.8479501154829
-858.7407524485936,-403.2212835167973,-129.0777176711721
-813.8059378075083,-492.7299332595739,-147.72628777411248
-768.2450174116544,-570.4965508099096,-150.705898548434
-783.8211825648923,-593.5890441690078,-150.86089541280666
-806.8616703971286,-543.1854914777218,-159.22562750786457
-875.8699453941969,-511.66606333457406,-156.44078253022187
-923.3479322704492,-448.8331897233001,-94.57011313751384
-926.1388955453698,-413.77942518597075,-71.18241193475858
-920.813937481199,-359.3734863587464,-39.8892588192706
-935.1654234626504,-304.92064058572504,-20.66485497086161
-952.14267869252,-250.13128846242094,33.840710130370724
-994.2589977209343,-211.11694615388538,33.078268317927126
-1050.266910718747,-167.7382184538043,75.26382607720272
-1126.541683449496,-151.49719832970484,93.6895881876074
-1215.3079797892249,-131.5372731768749,84.44341339805133
-1365.501980798744,-123.62733451280509,-27.722514824124453
-1469.9719068183326,-112.34213518377835,-154.9132476431809
-1553.7110022280801,30.468202699188815,-266.5385223292358
-1772.664467478701,427.24885664319623,-220.13735577388815
-2336.2820127158616,1113.0304436275387,-175.94795368448962
-3205.212789280744,2034.6397597548605,12.007158407815107
-3916.1283414825657,3551.7633442612923,302.36013317493746
-3755.828952802435,4678.916857438576,583.5315831604065
-3405.6380109415554,5421.443612242714,421.438513661648
-2912.3502929134825,5541.22967578123,404.8762829304605
-2243.1921196331064,4899.369305522274,173.73822865096645
-1675.5161038682936,3965.452014704308,75.50233769941826
-1073.088159565193,3124.9713204815102,71.66310615755637
-618.6648855623481,2591.3130375816413,68.49647942977471
-256.17922532159304,2270.9080063018464,35.76083575940816
14.013144141985286,1997.603666899502,-2.4407825302218393
205.24643991577145,1733.1504642258062,13.089689139512476
414.41062952180414,1472.0725222170672,-10.368780368423469
637.425624448716,1207.6091223812414,33.11018543539333
795.7314679324745,954.4513161987021,-14.684627268231253
944.1389261368562,744.2765878256082,-23.526382607720276
1046.1370600561866,549.8666721051533,-40.9657732253114
1117.0991113173204,363.36261618391603,-66.74603457857678
1120.4845691444073,258.94571540740213,-58.49377718181031
1099.4274293464132,196.85315576675012,-97.84605344332674
1026.7216633610867,232.3056293433538,-91.20535554955056
946.5913436290682,306.50425986447976,-84.80673828473537
882.4981007785535,411.63700142250417,-66.49834551044445
829.8848230537442,505.0735980176717,-47.97856556520321
784.7868538185824,552.0611013954817,-25.264896779226344
759.6110802363703,614.510561710676,13.393564570979898
709.3533469635402,610.9945802083281,8.727934615796425
678.7985703578695,591.9911488632715,20.108191890196963
654.8597125419996,572.6552900327839,0.19177904789097197
626.985769860248,561.0519392453081,-23.734302743546472
588.1508976051965,615.3406107080401,-44.122304762584584
514.4417308663,700.7449026935805,-76.91148353413246
449.42156597818837,809.5068142535933,-86.10157393197474
369.7786705959732,914.7241922572949,-71.95097204448003
337.8299419271617,1045.9841026242398,-131.74121641947048
285.1860727159632,1270.7193588024454,-141.13790132206208
272.00114208215854,1646.0055166647123,-154.37483748272857
183.48773536324845,2211.550325544401,-157.60835759408158
58.13901791131529,2761.3813075821,-220.2107753412226
-140.3435423921523,3323.377504040626,-283.94915694962094
-385.1203010202261,3781.444224072441,-328.4067444030327
-596.2484640524543,4072.930103552182,-367.8738407101304
-734.5637908969935,4074.102777197106,-358.1763395247103
-807.3705087874046,4074.7757898976715,-347.4948121937665
-927.5715968246038,4053.3311579387464,-255.03204458199286
-1060.4538756863965,3931.2915215695475,-174.19404179816758
-1175.0699780251157,3685.274788026493,-96.58864138110366
-1244.6146237502105,3330.4645317208224,-29.714938332662022
-1279.6826643145214,2765.8068759464245,-36.18452784590049
-1279.142214721643,2197.243707076321,-14.635273003523123
-1203.010202260711,1670.193185236549,-43.11390739957071
-1151.0454640473558,1194.2712343154901,-1.483676892720756
-1091.9733038295444,806.9554842887226,4.632407600964652
-1028.2512376805537,512.4950926157251,14.429392300122876
-980.0359959823182,245.16629022143138,16.053494312532823
-904.5178526815989,101.29187847022176,1.9716009034685649
-887.2938261281887,-15.226402492186427,-32.698933886699336
-879.8040105438656,-84.85456297512403,-24.502556938404044
-919.3995910937987,-177.50913920655884,-36.55692820688003
-954.1341844564658,-242.9065990934723,-25.082775463588487
-927.7582048915788,-308.9179281405985,-28.389613170654613
-905.2357328955353,-394.20801191028545,-27.76452713209914
-874.9256881809794,-429.33315658252315,-35.04122202790964
-848.4416186975167,-441.2505799635962,-46.37822294055565
-833.7648432441252,-449.2777859921585,-65.75436056145575
-857.6221237629568,-437.6978886775811,-89.69852090163309
-882.8152325207897,-422.59181269852604,-152.92072216302205
-916.0243304288417,-406.5068091550122,-114.22657074536157
-912.1443102384608,-383.3592511204132,-118.17083305716021
-895.0130778604315,-313.5331637205366,-82.8282848883156
-862.60547689578,-263.16937996155673,-47.191140705541656
-864.8784243345078,-212.53843055477665,-12.074357706250352
-893.1164057042927,-153.7222191064227,50.09814768549913
-931.5423717579399,-118.64092223134303,45.4795470420582
-985.0275068448452,-110.38428005486075,56.4244670708142
-1008.4483488245222,-75.5239556831334,40.25747834377693
-1051.4395843636717,-63.761427194811695,19.950849678534464
-1068.6218025523497,-6.158861588819832,-43.294907027374286
-1126.6232607465345,160.3004083963433,-83.97138676306385
-1297.77242993275,386.19610162491784,-67.6739763323867
-1672.9464190115891,861.8794389521397,11.443153370417015
-2281.9311385641377,1517.3377249111575,86.45154053626877
-3050.8073603116254,2471.904269041926,154.13112530782684
-3742.3890931153865,3740.7371528503622,386.742669515074
-3453.890982139671,4923.1082989604,465.5677524944809
-2948.886724824482,5630.842336577732,443.2716574977184
-2329.3887311161307,5523.425430702636,225.2859029332137
-1787.2973951349343,4646.999739972366,44.0565330668475
-1304.0436846425641,3614.414708386657,86.17550335741564
-832.0629368846652,2798.264443005512,92.07415376300777
-416.06053035440243,2261.0677448466095,92.26851167320136
-133.54407468401544,1960.8327002595179,81.81468697261553
72.09383428591825,1707.5861787664494,66.12614909270751
251.1387680808431,1450.7910448522177,61.825190049609205
418.3518326849639,1194.0061081001159,49.49763680767643
547.3285984510512,960.7674384218874,40.44255683643243
686.6942329949576,715.5603595519368,0.18652546996170968
804.8181591063208,544.3795791631189,-1.3912192236900471
872.4661326752766,377.3521029097602,-15.512942748033224
924.8081658874336,264.53783911937313,-37.89601953776265
981.246399127123,244.43923256157817,-72.30440568389818
935.74054340677,291.32374460187737,-61.370396618621044
890.0980457138779,357.4839522160983,-58.35264845793416
805.5105464149328,423.8379059107851,-67.69273911070549
790.9143285423668,482.09021429336224,-56.33401824272306
769.4289079349218,521.2983026823636,-17.541974068616703
762.2399086334274,536.93565080838,-5.928517893470248
755.6239898436266,517.9587320848608,29.35803765811975
717.0073368581525,506.6500792829356,28.817690036862743
702.3030290670108,491.5001555067225,52.19631576532252
660.6506809155013,519.0447298516823,67.17788439477295
640.4552013174734,580.7518367638287,27.421086711568176
606.0724100482836,662.1935115457369,18.782050955219162
571.7977086976696,759.1114192920112,10.092437274706452
524.4084371319462,867.3135066510991,-45.92710048793421
487.87098550473405,1010.0064751979526,-129.37241565672275
451.68635568721226,1183.6865800247792,-208.99287728225235
388.7892399545207,1439.7271239414072,-187.25150790534997
310.695293499819,1804.0819240005508,-181.80112474698294
224.44361734129393,2497.641906257489,-146.18651629251582
76.53408656370932,3249.6010360316727,-123.46621935115459
-142.1994258997721,3904.187464628594,-234.91610284857725
-380.6845354937721,4257.570118236095,-298.549453687039
-536.9774591731122,4262.087461059587,-363.7001422504117
-545.1198931337409,4200.241672742476,-363.6134663723086
-736.2901704455651,4086.2577944558034,-299.3733843871251
-1027.3232959267436,3980.839532358145,-228.81004216526546
-1261.3991526158272,3851.6006995253224,-176.93503897865224
-1397.2151550223575,3524.1392320517207,-138.6192022760066
-1429.6421305950555,3064.4103745927514,-90.45831145192294
-1353.3775550264363,2556.7140664753,-118.99986233831126
-1303.5032350496858,1975.9856831843701,-116.29353550906784
-1290.8383596845,1507.884955616852,-98.8266125537263
-1270.7601474509645,1113.0304436275387,-105.04300653128234
-1153.207262418869,783.3684285663301,-90.3962107345526
-1067.7856352577078,499.95972120958737,-123.48253481056223
-1015.9636573141696,255.71117557983618,-133.65624346744303
-925.576012195806,72.96171475478376,-155.23343853405598
-892.3648748553279,-58.979569985672995,-169.98873213584662
-823.246470507258,-171.57133169838835,-152.87483493343805
-787.3361443510272,-268.07829381083246,-97.06719419985419
-760.9876971238905,-337.9574064537839,-100.36138742587939
-761.6413352164094,-372.8786078834261,-112.0270428739682
-762.8405214828714,-407.9364512856073,-139.39928517893472
-744.6090153110391,-419.9313730988667,-166.55840679538886
-722.6331112051517,-428.12071400529237,-197.598568318437
-724.9509261572506,-448.0123181718529,-260.3600617948025
-744.844569756237,-498.22518393131196,-268.3373017289289
-740.9910621873934,-498.25475570148836,-268.2801976210021
-760.0944257213218,-494.20240347111405,-264.65510648386555
-788.1967848347806,-416.04319517878173,-202.54521166759292
-797.2498253735986,-330.36256009952433,-148.026084340728
-828.5245216256317,-252.00246771323543,-66.34141118526715
-926.0430422213499,-181.04449531695332,-5.247592195092107
-996.8878261179915,-94.92262903234031,44.420775698123215
-1051.2050496346867,-43.39616484732299,133.70009126460107
-1067.459326069555,-66.66048038830793,113.91147843555139
-1095.358761656631,-101.44177675352951,93.98775320828214
-1123.3703660271349,-93.76963591032617,62.14538094048427
-1204.121692932857,-16.860395751862256,-60.986881350920044
-1320.5528901306768,157.6114167427205,-122.18851493629326
-1604.6050384178084,458.45319247653384,-45.04147695696288
-2129.626324993754,784.7929721158603,75.50570276292109
-2842.5609152972734,1254.709814258692,78.93980105336686
-3836.1214074123177,2247.454533403354,323.65792599919445
-4455.721372741967,4127.586892567799,618.0785487398857
-3984.0108497805068,5852.620415738301,536.9081184706297
-3018.584327981523,6525.3883844126185,470.60719001901776
-2251.207089067113,5584.904121183075,245.8729535570251
-1826.5564693345846,4214.589079859076,111.64566901031445
-1411.6237451117354,3112.286050792065,86.25810037066685
-954.1025732538636,2412.342645041885,95.4725619859993
-527.2248933121913,2010.0544018599626,48.2792798764104
-244.38314816986437,1814.1771145090324,25.70449643864113
-0.18503974343940086,1641.7431028944648,-5.377544829274014
236.361040722367,1457.7964952353761,-32.610728434276744
437.8437080960369,1277.8777666175506,-72.15654683301638
622.4674073205429,1066.8271020175087,-147.17156215425248
772.0036913726912,778.6991480271041,-218.527223873596
872.2061050409671,579.9748130095395,-286.9991281426379
931.2466540561763,420.5044536105602,-328.7473296181673
961.2589416365425,304.20479980421453,-327.9060637424605
963.9407952766746,234.36749552599517,-347.25313945129074
972.9826189371499,288.7091922318019,-319.82889161946235
974.316407743725,401.03909082102456,-304.4893006276354
956.4652557193335,505.8149317045067,-285.48688899879164
973.949309907053,606.6240765195047,-246.31856954209647
1001.7141429540161,641.3709064767276,-230.32126159289874
991.1631392983334,630.128535228646,-199.0445259084397
948.8031080950173,557.0862628930369,-183.73450668678908
905.6262842051058,483.8400473148323,-191.98299113356757
893.8485619452108,452.97935584526834,-192.05539098468898
828.2022913023308,472.7598109446142,-200.95445437534738
755.9125695318993,546.9339682766287,-190.51459978687933
706.9886250656443,636.4385391545533,-175.85006092804375
641.1771603962618,729.5539251426329,-204.622373593429
564.1875666002153,857.611926600827,-229.75531909469598
514.4172576771886,962.3510577006421,-242.62821656732936
445.37941090994383,1105.8618386503038,-263.76999281100075
404.6488862149664,1400.1111490672147,-277.1466300928452
373.99315770421094,1895.7034257366176,-263.5793058791739
297.065766597156,2561.578112811205,-286.60041910336355
59.19860502822065,3351.521671518816,-422.34096251013347
-254.39982052994657,4041.971519326172,-500.01070702023634
-636.2917000198845,4497.662300581748,-499.4192716167092
-1015.3069600730117,4717.49272177553,-478.3662106835668
-1279.6928614766512,4623.372915317667,-419.21451260114316
-1341.9975220896026,4260.670055523548,-363.97954449276773
-1302.7384478899523,3743.062105815952,-236.05818500711254
-1290.787373873851,3353.010457189764,-144.29698214986772
-1306.684749634177,3013.1696348906103,-88.44365812994245
-1305.3081327466568,2641.768595799789,-83.24545079104486
-1287.7282252349173,2247.2913788092774,-50.25426623770605
-1266.9668031386866,1852.6000214140406,-36.83796199517675
-1236.181570668883,1453.5850672757772,-66.42767917688508
-1207.2216302203099,1128.4689470920243,-53.12333977454075
-1143.4587754228,841.7502409079553,-43.35160324881586
-1073.0677652409336,574.0043745825537,-68.8664324718431
-1035.81753198085,372.56657472225487,-63.70422111526363
-992.8691245226455,193.73588330367662,-121.3268547363269
-995.5101895142583,11.56347988354841,-159.99857239730184
-996.9796005771594,-120.11033329424423,-175.27392126771122
-975.328985943212,-251.9616790647163,-190.20358634192107
-925.1507905349943,-337.2894923342834,-169.5410767183493
-870.9824455853937,-383.99453432109846,-152.87381521722506
-817.2250462696231,-392.18183579509827,-155.96559477497416
-797.2488056573857,-407.60096465153754,-132.06650589141043
-793.3127010752909,-434.6428189034992,-124.06683220059858
-804.3276756078784,-453.72680782938113,-104.54436530313616
-777.5713418955506,-465.5748905079717,-108.02873560288172
-766.5288350252126,-442.6231179862645,-127.56343909489989
-782.1345719486268,-430.9667419557138,-135.6854787312691
-768.8293148016908,-395.86097189152264,-92.43421555781028
-783.9170358889122,-349.31704506635805,-92.81722096740478
-783.2909301341438,-279.6459545308541,-89.11830237644864
-824.9432782856533,-232.7910142607313,-78.12647540189566
-881.6558151866336,-193.45240219646874,-55.56086941004319
-976.2467305348923,-176.82287019522468,-9.938460126546783
-1045.8311451922932,-129.9995411277042,-26.837197208017013
-1104.0161523048137,-125.78709345189235,-39.49677004889539
-1183.6151998898708,-79.48575711379524,-123.262276108559
-1250.1414856245508,28.89967522038617,-175.6440782530222
-1330.4951232072117,154.24329409125443,-75.23099121514483
-1548.9693218377329,432.4218769916333,120.71400529232716
-2050.9858106488964,921.7490172484999,315.62358195714137
-2976.7555689251685,1641.2434419501053,350.34899787389173
-4132.899614037414,3066.5823701263944,371.3939010773302
-4153.650838971515,4983.985356875182,600.0917744591682
-3304.8288661265574,6121.825495964474,518.7010854879087
-2806.7790733838774,6040.982394599583,569.6053188397669
-2257.304992020721,4896.952578097516,322.66982098881886
-1711.022622404185,3680.726853716611,221.14177624367142
-1144.060407988457,2786.2521860166316,205.1801583619279
-660.200986065578,2286.764593413653,155.24363569618578
-282.46750929216404,2058.8886112994755,98.87627273329834
39.59109379859586,1862.8787608408581,96.5123666083729
265.0680915501216,1652.11361678045,88.82696945440085
475.2672931123269,1422.188005078187,88.82666353953695
688.7479414478952,1188.224317172531,73.190539072976
848.1163292255767,970.0866248922925,48.841245481382536
938.558019303228,775.7654244823667,31.228503107585162
1006.4517444795115,566.3187734853391,32.95202745076046
1027.9147313302708,426.69515073954926,14.121438003803544
1019.7671987885773,326.23576858560267,22.187597191701553
1007.5295845166291,306.84484507961434,6.371156307199707
949.508751714398,334.2690929114428,-6.364314011410625
881.5354886735022,435.5626029276053,11.898864545996851
788.8596003732162,525.0528977785483,-13.338907781964283
748.9234346081487,641.8522125292532,32.76429769595122
695.9552956412231,684.9953857841364,51.4484558947245
674.7166463573188,701.0936456384189,102.09602667577614
636.5914965865,643.565335767056,125.26703818327361
609.3191864704054,562.5988487403956,132.98017161823867
593.4972697098398,504.68712557295316,132.93938296971953
531.1609978942861,504.9920207206335,112.38088439987152
477.31998184905143,578.8123365267447,99.55173275277492
446.7356334732045,691.1065450485131,83.01632055798872
415.3334726945492,764.5760784773598,50.90107223159795
368.19097245236657,830.360010808992,10.726802730800019
321.4563586953751,896.2459147619219,-17.667807049298183
309.26667108543694,1000.4486751337104,-57.44816017702274
310.16300163664454,1166.7388965650862,-65.8449113611682
352.045805652287,1487.8169405454464,-34.90376428240021
314.6375163791917,1983.715132078743,6.03379339529809
186.4958981915333,2723.0705694605194,-65.09847909326835
-87.2630306985566,3598.9252191115215,-142.79697960057717
-386.48162216455165,4180.877261858025,-227.7342415605737
-624.5568058409345,4476.431809027548,-267.6194215149924
-794.3823833827047,4516.292515792856,-285.99674710528063
-917.908765990425,4428.372583909899,-275.7761315026029
-1128.9686080363836,4128.994100941708,-191.58632152671913
-1288.8397159070632,3728.113066133695,-165.1562970025442
-1370.9778568624354,3342.242253980718,-121.91421127500219
-1369.101579030556,2905.3142510439347,-89.0146992092101
-1329.2408722652488,2429.341314312227,-63.264213569363655
-1266.6200996262742,1980.1359281711905,-52.961408839919855
-1227.1060963733794,1589.0339718456355,-54.97494047406608
-1206.7117721138209,1201.9802888856032,-53.363584914318345
-1186.5519825832473,915.2758587285159,-79.56682455272698
-1134.1589635604412,694.342104592292,-78.03663840353231
-1085.5796831741727,477.3067255382828,-76.57691464465441
-1060.7291990639008,291.19424064282913,-99.12447165953716
-1031.7284699668085,128.298654484457,-117.76396628818202
-1010.5132741558026,-65.4525245624143,-132.49070783600925
-961.3150260282564,-212.8168130809196,-127.3319635145539
-924.5226453477999,-344.85578663457966,-149.8829875645608
-843.7896733339112,-430.49053448425303,-136.61138105265306
-798.337862572846,-485.11163343241583,-147.52030509909093
-760.5125093686428,-489.4495062024239,-166.5614659440278
-752.1498167060108,-512.5154869399847,-142.81125562755886
-805.8796836840309,-539.0780745718467,-131.7524332978132
-840.01570362968,-557.9825934442446,-112.57666991276331
-852.1482871316913,-581.2086696272428,-124.4543243615302
-909.9213288941688,-615.5119230318203,-117.35404037056487
-927.7174162430596,-580.2368800762748,-82.41835897069846
-963.8806320201088,-513.6922394497612,-28.23991883058945
-985.039743439401,-408.75018482356364,6.410721296263251
-998.9292979763734,-288.5297221783178,25.420199558462883
-1031.565315372732,-191.20188851442646,63.849224760749095
-1069.2030407937473,-140.47406606741345,78.81274441322981
-1088.8835637042212,-82.4997323244941,54.77477018145851
-1093.604849770309,-71.10317998501019,27.19318013796761
-1108.0032426975574,-48.55409339580795,-59.44017579907513
-1142.0209755625012,-18.2213090097026,-158.1671620787935
-1232.480000815773,90.13750873132008,-234.45621083652424
-1428.7753718140243,247.1863480393407,-151.58489392402097
-1881.5395675383543,630.6485904972646,-69.39372772557398
-2791.42214721643,1208.2413464332878,119.10897197309991
-4103.144294942718,2236.645541545788,178.40750919019237
-4570.663784268838,4048.4161257921924,318.3533622592833
-4140.098810501037,5589.717181708332,421.64347662045657
-3518.6429616637697,6450.255693840405,282.837666277475
-2676.1024406907563,5889.1466504871705,148.2157515563419
-2050.4147695696292,4571.510148725611,24.67131997165189
-1507.833969806203,3441.328078395783,20.91305389710044
-971.9578041431072,2690.9087201031957,78.56689083428083
-558.5026487128632,2281.5130549168166,90.06582268154774
-251.0388358919713,2008.5962076754042,126.98933886699332
5.103465505549806,1735.7507405688998,127.82142729678333
199.56254174463248,1459.519815635309,127.74188943217105
389.0237746835056,1194.6179378279026,92.22711119495446
582.5281824068362,937.4577455094249,60.67158509786727
755.9197075453902,695.6809919799321,1.2905324448206066
910.3720434603051,461.85904462788005,-50.55181942865301
1062.2179847348484,309.4808114901623,-83.08474351587954
1085.804020741028,239.9045545624653,-55.02439671039551
1047.4320996466686,282.7234580616215,-59.668286315918294
948.6358746360888,326.3265233285577,-29.898283307755456
892.7962148134176,412.2274171098184,8.221676107539272
870.8468233290675,462.90425374618246,31.269699642589472
857.0408855215594,517.493741491743,66.200282461391
839.545614455497,556.7059087455962,108.9770716809512
785.868772720552,595.8089663646607,108.04097219743747
719.4607740665774,584.5033727113745,83.53647779822876
695.222119684092,541.9210433736291,59.769340192624405
644.5544604936447,557.6114167427206,39.33432925616802
602.1923898579026,619.7366073021878,26.716360836779128
537.8003701569854,682.3125124277915,45.16384290252024
464.85599057782224,740.8748145391139,39.94901418935111
414.5146405755279,802.9898079364514,19.362269480403604
344.331652501109,938.4866391683196,-33.166167855485824
301.9124777574401,1089.4240132970995,-65.70765755890136
276.1054998393947,1371.8446156434666,-90.59474948121938
221.97692382210033,1740.084534474056,-61.25088587846003
162.87519183411257,2239.3885781586987,-91.29294917224537
34.76345133149445,2808.828702971963,-126.52944685494029
-199.87457490580374,3432.5177303156534,-245.96268858376715
-439.1601617269914,3852.3552895229263,-235.26484579341573
-681.359077768657,4051.3223169991797,-263.111256137417
-884.967853446386,4141.88331387375,-266.4671421943274
-1049.0330541010437,4143.576042787293,-221.83518326849642
-1192.2318018895344,4017.080246567381,-215.70362967986014
-1309.1116742210643,3720.281645618025,-192.90583430631258
-1379.0438121070906,3349.930914226571,-133.83469380471416
-1399.499319339428,2870.9090260180596,-69.73074393396318
-1353.1838089459707,2371.3908419286918,-75.20111353010458
-1286.8920579402754,1895.0712016845714,-64.75197952409845
-1219.9986743689233,1484.553848663917,-50.591384417716554
-1157.4798733512466,1058.4858233953491,-48.21748507390394
-1058.547006368128,763.8928686146646,-22.193919432222017
-1007.2063344771151,507.9349217112878,-44.10925239505846
-946.5291409400764,329.56616173718857,-34.74937924775535
-895.2771843595928,158.5495556586602,-76.57558901357753
-869.7179974813009,34.405123054254005,-91.4724192257295
-848.2580697791805,-85.9090515109645,-114.29285229920515
-864.1880764583218,-197.91468034446015,-106.30439548673604
-896.2958808563577,-282.95901250681936,-126.12156036974912
-912.3900618457884,-360.24942258569445,-130.0260537492416
-878.5263061290043,-399.3412633264163,-145.08522278249964
-840.4806942227979,-449.96609443591854,-148.2697965156297
-771.0910453620759,-485.2523542698068,-139.2616234901827
-748.4604834474566,-497.1391861644905,-150.65695217021107
-768.4367240596944,-520.3397694421643,-166.5757419710095
-791.0662662581005,-527.7612640402176,-151.1912834658115
-802.0812407906881,-508.2265605481995,-139.64911565111433
-827.9381848031695,-484.56608525847264,-112.64397118281983
-849.7519540311933,-395.23588585296716,-93.64849362422439
-885.4522186475505,-320.8506472648662,-27.715682725497494
-926.3683316932899,-266.0878077630996,2.883675873004543
-928.3965472409029,-199.94799447313815,41.87637980350069
-958.1610437815157,-145.37686161941133,60.86951201480628
-1015.3375515594012,-94.56858356319438,67.69090362152214
-1060.668016091122,-67.9469543626009,-23.344261292082415
-1118.0576445575198,-52.94478746564831,-126.29491212595535
-1202.6634987482985,4.6848720001223665,-245.49463884201032
-1299.3529900628657,70.99182697455299,-270.7142602213804
-1427.1540230353894,219.56223582976858,-210.3358435347443
-1695.0844579953402,485.706127984582,-105.35809884109253
-2524.4196540102894,1210.3317646698927,154.4982231444989
-3798.59585077473,2355.0345938725254,272.83628966058745
-4389.388833087753,4218.973859574881,512.7999877634055
-3738.8098892078337,5635.084356023719,655.1289176222258
-3228.5031075851593,6272.651721026039,578.2045856638099
-2610.8100115737793,5611.528911503929,311.0399575798056
-1906.9916842142834,4362.080832904203,94.24482366557388
-1349.3394788230437,3239.403873901894,78.91288054534424
-871.7105229614599,2543.3965727338086,111.96280075255058
-505.20616112535885,2149.622959930252,99.15832623780803
-191.04485221762786,1907.287401916047,100.75713928813613
68.54144891476703,1653.6329939377872,85.87805213808998
259.4474157841873,1400.6719929843528,89.59104281278522
457.40492420959254,1151.3513789112492,73.77422463328456
612.8106947836418,917.7741634503119,49.41769105657896
698.4454426333152,684.6242090826124,12.240775392208349
785.1977994524125,474.92568818097925,2.473811138360195
835.7410532648764,319.1783126755824,-62.96227559870089
881.3029933769434,202.79402242355957,-57.9625050348488
910.93186766123,148.18821921859148,-80.88215649584721
915.6307199706323,171.542779644425,-61.26750725273157
876.9304502556939,225.8651017421852,-77.72888805045557
816.6642023524854,307.7901220090449,-55.36029123095044
775.9112439008225,385.7647616668282,-24.83681991301821
775.9102241846094,443.6938200098913,-36.80614684933184
735.2663753677352,498.5249804979275,1.6462706428800866
724.6317549825884,533.6032182243682,20.991775988742333
706.3186715137178,553.3010763104628,44.19868150693663
682.2707040630593,576.4190625748854,12.363549224250892
639.828075846492,569.0087848551749,11.752739212677113
612.7719455675486,576.9197432354576,7.39619543880938
594.0214038433105,631.2655188061163,10.85661260471211
535.8649487847533,658.6561160029164,-5.805407555077423
473.2258212539451,732.2612716880893,-50.162797693401934
438.1608398382731,832.8420000713802,-82.42437529635504
411.91844309728606,1072.670075917872,-111.09910112015827
383.4020792013583,1363.136239184635,-104.65653408656372
337.08962795653974,1766.107692229253,-79.23745621593511
258.8835127184105,2288.7734343532197,-109.64396608423877
129.29899608938834,2861.700988614869,-188.08563576756592
-62.32281156154243,3458.1839873963086,-283.2353556005364
-380.3439502786375,3990.190330031153,-344.7385192700872
-670.502159249081,4158.198773281396,-416.36950436693473
-881.8148909158583,4152.264024921865,-399.8919100814244
-996.2729372415657,4141.8629195494905,-366.2494327828566
-1145.3044617682901,4050.6493042986144,-313.2292882890692
-1294.7948585908543,3797.127459428041,-240.04527539985625
-1372.8643318564446,3403.5577898670804,-188.86775810292
-1353.0818373246727,2946.8370952363957,-190.9551171908858
-1283.2720653842036,2462.6758373144758,-188.27632269939278
-1205.9877736026067,2001.570362967986,-197.3365012517017
-1131.0080404623395,1606.5424992224666,-175.25760580830357
-1091.3716712638875,1215.4711343833014,-173.34461819275697
-1065.338316346561,867.45422748849,-128.60966792941528
-1028.5979411929661,611.8205503408402,-127.19736097444083
-1022.3878694559305,398.9813035032351,-126.38566686891039
-1035.8073348187202,213.23591644445355,-141.6589763068938
-1053.6931571943528,54.39482392050293,-180.6376285479751
-1070.3349257901527,-100.26930705184749,-184.2892323066491
-1088.6082403267171,-236.03473153421405,-239.0500323759898
-1128.8054534423072,-355.8728005995932,-262.7951441113938
-1118.1086303681686,-460.45183625397055,-266.20711456001794
-1065.0324014826674,-526.7395083948137,-276.9620614582962
-982.77597344659,-550.200119306797,-232.48000081577302
-928.7452901857414,-577.6294657196903,-223.72879627599644
-897.5093431498016,-558.4557417670663,-215.47623296436606
-865.5096286703412,-527.5042955545472,-187.6288029041518
-864.3920197009173,-504.0528620884808,-160.21883109930508
-862.9195494893772,-468.92567798381714,-124.99375423819552
-860.1030933091322,-422.87325437330793,-164.35378034293058
-889.9777192007466,-364.46696884257113,-149.29970989073743
-857.1336796969404,-310.1324101502552,-101.89544849668339
-846.7825404190015,-263.1867151371773,-35.180209347738526
-898.5504734032519,-184.9846787639,10.875987212758691
-954.0628043215573,-149.20691571535644,68.79311487612998
-1040.4062549392504,-93.88149877888985,122.25785563877574
-1121.6776371135913,-66.31234927319728,105.2489892063039
-1141.9597925897224,-35.52161033584354,69.51966267787675
-1179.0672655799892,6.6180805881723135,-9.670733634829428
-1188.7647667654094,110.44954189249133,-88.6587162792595
-1307.786043144193,250.50858346122274,-106.61234978305538
-1537.2119939020972,551.1046075877084,-9.023030290670107
-2340.05496270388,1220.335180719206,137.6025452116676
-3477.3036663896446,1992.7804092121166,282.7958579127429
-4091.417558493472,3175.161752484284,434.44295452575557
-3864.2859692147676,4497.111653826741,492.2547455043262
-3642.0694120826183,5461.528656574876,370.665823701264
-3195.015627150964,5736.148429891962,321.4920487628293
-2449.6642584368774,4911.972997914681,103.88358919712645
-1830.6965171592747,3838.9460213222665,69.68016600979948
-1217.0313001891575,2990.56252644889,58.18653668684006
-714.2255510291486,2386.5744163399327,20.660266247903213
-352.4465541239873,1984.8878057236673,-15.73636257029669
-97.77712062732942,1696.236737316005,-54.1186847700285
125.04779919748334,1404.6998720256154,-10.55120759892522
280.6177440818221,1175.0189922144668,-30.993866406978942
428.61629608479967,964.7422922200752,-51.61528146716769
584.8388593454442,789.2919600475188,-64.38182253878746
726.0022535728308,625.6366853104781,-69.56453019124778
862.4117308153142,469.5089556576405,-102.31628537777937
950.2796571714093,379.80961898303707,-104.62186373532246
988.0244527947873,325.24664385901406,-115.64601571382687
998.7946954362601,309.51140297655166,-135.05529411164875
933.5022663192834,360.27695492344486,-140.12940198742692
873.0188188627105,411.25154869399853,-117.65893551824529
838.7461569445223,450.2403980972096,-114.37952817730827
812.2620874610597,481.46716768723275,-107.03247286280231
774.5448241754322,501.27923398918085,-88.04097219743747
740.2731819734569,520.9597568996548,-80.77141531511782
687.0337984938792,506.1065705414184,-57.97107065103782
619.0880677907339,553.339825526556,-27.751270821330426
562.5672375377933,600.4507145661363,-1.2844447390291285
528.8380843611224,716.8146104938996,1.7423890931153863
459.6646153375516,802.359623316831,-11.356171577449997
414.26684953577427,884.0276750980203,-4.46250248555827
331.89927243248206,892.0140924780634,-48.894066781214796
288.8825439880082,957.8357543095758,-81.15747987335126
238.67579652582688,1077.9114172525788,-109.78672635405569
178.32389246072822,1341.3245093890373,-127.27791855526608
122.91455287993352,1720.8424895351625,-137.2374868074215
30.547026762452013,2305.7313149750426,-144.51928028429688
-204.75595641732906,3034.5122952282386,-193.67266089847197
-526.5885903952931,3810.8528396547244,-193.26375469706784
-889.7064746880944,4351.231052398118,-224.07346035598297
-1148.7918912166747,4534.504647356641,-291.36657268282244
-1260.2366761330325,4462.074204748819,-269.24382944226625
-1368.7854670045328,4254.1948575711385,-246.62040554113793
-1562.9496311176601,3830.502771078809,-204.9293081735353
-1698.2251839313121,3348.707254770997,-118.98762574375553
-1692.7085192191014,2745.636889253721,-58.00176410904845
-1567.3140165092057,2280.789056405603,-11.384417716549486
-1464.9752973747409,1823.8542213701928,34.86083422983384
-1359.628415411991,1420.7400080557584,45.64790218882086
-1261.1544207247123,1098.9991485369624,63.90694069840364
-1177.64986004395,819.9650237338949,85.72203555750436
-1095.5219162507076,540.5913334319059,68.27173397643438
-1062.6360683821692,342.9152666812826,57.65740594392581
-1027.8943370060113,176.60057206079549,94.06035700264619
-979.5954785783118,36.73435882793819,71.70797367092739
-941.8771955764712,-60.31550019629538,68.67574554001622
-913.7197717875117,-169.3565080838003,14.520656901184402
-900.0484365201166,-281.90768509123916,-12.367220202617613
-894.6031519428143,-390.668576935039,-55.08955657640479
-873.0616469436557,-480.06709732681395,-81.93766474790067
-831.6275180617235,-519.2517322429169,-100.80792115554243
-774.9975781739943,-531.5780618253941,-131.3149750424457
-786.6947428530641,-550.8323433588433,-131.42510439344733
-790.6298277189459,-543.0998353158317,-135.43462854287654
-801.9996634936498,-515.9294968210348,-135.69669560961185
-817.4136937690242,-496.5008438151663,-139.9183207313405
-827.2029694136123,-457.3478201016658,-97.02579372160729
-822.9691076973279,-383.9068387267824,-101.13474020180186
-812.5639234601011,-309.913171164465,-38.43463364145759
-819.8355197748467,-228.644848138763,-42.74232281156155
-865.3974598869135,-170.18859651359028,-35.7727664391
-906.2044632978643,-119.25988997262064,-1.2342339127020951
-932.3887362147116,-84.09599608428975,13.953388771904782
-978.1668561639297,-56.58935518245273,21.024100992693736
-1048.1560981578828,-29.177955774907847,-3.6644521829574837
-1103.302350955729,13.418343674955263,-47.805009865754364
-1161.7626814457537,75.49061096296901,-80.2870501139533
-1227.9320665058915,118.31257361076413,-108.8944746677
-1371.446926320405,243.7560226988829,-52.59859381134231
-1720.7915037245136,614.6716768723265,15.485104495418925
-2566.013878337659,1149.0672145941785,189.40310911473338
-3923.1133975414646,2325.7891328843184,353.4876843774378
-4043.358333375822,3737.2293290777184,594.1753809914702
-3456.460666996375,4723.641610539787,654.5833694482826
-3277.286331214024,5460.376377254211,560.591027517042
-2743.740217097582,5307.96959206253,427.81173999276007
-2017.2535983235866,4368.178735857811,245.6333202469753
-1445.0908312216711,3272.1979473112638,199.03126959767098
-965.538690582411,2571.7956692652438,177.18079058597993
-313.86457148975444,1919.9522772812327,110.64838655402204
-92.8952292576976,1674.2924444127202,91.23941407106403
74.64373664809085,1444.6217617637014,82.74997068315889
277.16498498467877,1180.0054044959288,90.60086777849726
468.1506936619539,977.2776636262129,86.29633972865352
627.2457974945573,778.3809965686551,50.1041640111557
783.468360755202,622.2410303212616,33.34788128463849
880.6891242167305,470.10752907465854,-19.62729372415657
963.9407952766746,330.0423692086493,-33.6061754013858
965.9414784865373,260.0337526066496,-72.58625524516528
966.2412750531529,263.9708769049574,-64.74586122682058
908.3846165612111,295.2985984000653,-73.56742618529265
863.2876670422623,322.97573585271226,-46.863913772797034
791.1896519198708,346.99311181698135,-20.552584215812743
750.244986820168,417.19649421565987,6.069626223022134
705.93933708249,460.5201572402401,52.35528952292578
675.6558049894714,499.5141052245161,59.61933993769535
641.1098591262053,557.7439798504076,51.05617106759189
629.8746258916144,662.1863735322461,38.76165663095961
618.531302738448,731.8442077569813,30.50756374500977
567.1804336853055,766.6736347274555,-13.549989038050711
513.885985530227,802.0108803719926,-2.693621165229717
466.77101762579485,852.3542698067129,-38.890752703522615
426.5442327400285,921.740859518796,-102.52124833658795
363.9061249254333,956.7283425022819,-138.89962423457553
309.1646994641392,1076.6673634727458,-187.21887698653467
252.77541260267273,1316.902306088216,-196.72365180770194
195.09516501557619,1669.8056930756172,-155.60767438421888
133.17493741491745,2161.6760055676505,-154.26980671279185
5.063431447028292,2750.4295554547175,-193.4962499936268
-179.6230109160621,3339.927498177258,-198.25118669474287
-414.1475427388558,3766.6889304706506,-273.84682842764863
-659.3556413250193,4008.382067270679,-286.18437488846854
-844.2944328593353,3994.371166504362,-284.98314918958056
-1013.4378202546233,3976.4751469665994,-271.75742990725684
-1224.261088139171,3943.640284908711,-235.55852406275335
-1390.0363528829928,3778.833750567217,-206.08872550769127
-1499.6150571296012,3443.265539200441,-186.97516481163294
-1508.9250661540893,2925.4230547638595,-126.49885536855093
-1399.6420796092448,2437.346086584104,-95.74268481081717
-1289.8492349579114,1984.1434128881933,-57.247581997929984
-1206.619997654653,1647.1170073368583,-31.316198701901268
-1138.146053953185,1325.8248229517726,10.039534397577157
-1083.2343358843234,1011.835846084035,-7.701712613379697
-1019.1614873580684,729.0501853334218,9.91044852217628
-964.3272677213932,500.0066281553844,-27.741685488928432
-954.780684535494,310.1793170960522,-46.58145238180215
-925.1222384810309,143.5862399494221,-45.57519642283553
-888.6031417456522,11.478333579764753,-75.97946291547063
-862.5269587473808,-97.08840429708413,-79.14721133108657
-871.7859819612204,-220.9990159738545,-98.49092197641397
-864.9498044694162,-286.92978744015545,-109.93968378600238
-877.3536324840798,-387.46156944522346,-113.71161405780772
-858.4664487873026,-441.7716549484279,-113.24560374847681
-842.834199242351,-488.1789398010534,-97.15590951038327
-839.9341263326418,-527.0668372991797,-116.6045489540261
-870.6795898701391,-553.8415259033412,-109.124930531833
-878.3315403323256,-546.0447757389119,-109.26667108543693
-867.1534112056614,-542.3676790749136,-120.88531761610746
-878.9321531817695,-515.3003319176274,-132.9271463751638
-878.1694054544622,-484.21326344878224,-117.3214094517496
-876.8621292694245,-414.37086058949797,-93.9899965839507
-895.4495163995861,-336.81328486282274,-90.60545650145565
-909.3920961796333,-262.9491212595535,-63.59113458724437
-969.3034828407256,-207.96908220442256,-25.42784743006022
-1049.3797576134564,-164.65153747712012,-11.075035817531981
-1074.9644373970725,-102.30404878322365,15.80376581197453
-1179.6688981456462,-59.184430972860255,-13.38234769263714
-1248.1734333335035,-1.5028067688762219,-112.71841046636723
-1299.7404822237972,60.304793176059114,-168.6447461671417
-1393.024121387018,166.08525847256712,-103.67964595453087
-1652.3481515094352,463.2907261909011,20.945480872673137
-2307.464832537105,1076.657166310616,107.17829228125815
-3558.901357752138,2065.6187383051297,136.11681868935878
-4108.997466005211,3564.7851203010205,291.5786736551218
-3721.5053050735983,4956.616173718854,516.3904085493008
-3342.2524511428473,5823.038448399811,389.63662412750534
-2923.312242202995,5761.590349405761,376.4955412908588
-2193.399376953394,4779.185552660695,190.58801935421374
-1579.9075117394832,3589.9211249509267,133.14638536095407
-1058.9243013669297,2850.341350002295,92.42483416865088
-601.1655356314338,2359.00128994101,65.61761661729541
-243.3236630245803,2042.2978285143245,9.252272692509676
34.87511025681553,1772.8684107212964,-20.993203591440505
252.1554251451821,1511.8312573610767,-32.55647953174632
457.4926198039086,1254.6486312859133,-56.08541142999904
601.7202612512938,1017.3943191609777,-68.82309453279153
699.3509506304397,807.4357706250352,-98.04928288457324
819.7508833291695,469.76796357573687,-110.80542285082063
856.7604635629905,368.677377085957,-133.45739880591233
871.9022296094998,329.872076601082,-133.09947841515708
849.8457679227871,307.14566136244287,-98.03194770895261
826.7247225097257,345.9428041176141,-106.35844044602389
778.3187938796634,393.0965212381395,-67.99630862730902
736.5573360933653,424.47624826010923,-56.95390372859234
718.5715815288606,432.6706877475999,-21.92930307495424
668.8848893352981,471.7788439477294,-18.880963427878022
637.7294998801834,483.5198564239573,-31.161099865907325
627.2600735215391,503.1922216047275,-3.9119271106850966
615.9453024223359,518.7908205146508,-0.2094221778079161
578.4187260685352,546.3751637919167,22.683179271208825
544.2551737851356,581.5298802343309,29.902056257743478
493.2591659741095,628.0330184109763,-6.340299694594995
466.3376382352792,693.9066857693505,-18.739630760759283
422.47658476645955,736.3462548372789,-70.55987518673554
410.1502551839823,859.8236910667763,-118.25648921905035
400.65771695737084,1076.697954959135,-103.43185491477725
393.58802445279485,1502.7251915791837,-61.80408192400056
316.00801496943404,2037.1278673145266,-76.54285612314094
128.02231139074,2641.2485405311704,-179.5118618488475
-121.26669147976119,3315.4543090657876,-287.5609917759888
-445.742429881764,3928.9359771175687,-329.8129330607293
-807.5387619625459,4302.580391876941,-399.2861986509155
-1135.9842555816717,4312.614399412643,-431.7121545074006
-1193.7001932362225,4112.260557886741,-388.730096414168
