acc_x[mg],acc_y[mg],acc_z[mg]
225.89773266100048,844.2383484676216,569.7694931500564
233.71487714968927,782.4160136234087,585.7933137207916
233.60678723111363,728.3221079573556,593.8235788979928
226.1730560385045,728.4495724839778,601.5611855220693
234.6428189034992,740.1681512035201,621.2712802027197
211.24950926157254,740.2782805545218,613.0717421341641
245.9025253272015,774.7599842963705,605.6247546307862
237.40523012445638,778.4829681899529,581.937766719522
229.53404067647978,793.9490039921891,573.9176987044507
218.3283792120653,767.0937578072023,589.5397510872725
241.39435994962605,778.4880667710178,585.9217979636269
248.420204657044,778.2576109068848,566.4044296472292
233.16932897574608,782.2793716508697,570.0876446085056
225.95381705271427,774.7375505396849,585.7025589778366
229.15266681282603,759.0961235488164,570.1049797841262
229.0435571780374,762.9312762258264,566.1658160533924
217.67474111954644,732.1735760937732,577.873177894592
227.43648442638414,708.4610952771844,531.0039615974874
229.12717390750157,697.299281609928,582.0876650028298
219.0126087909735,690.0276852951824,625.1309060688411
216.05747120576345,740.4873223781823,640.6152967629109
231.0065108880199,790.4564759627397,617.1230746483254
220.64517444795118,844.9134006006129,640.331815655703
219.88140700443068,852.446044265881,616.7467993657366
243.46642329439717,821.4884797560841,636.8280707479109
230.87088863169382,751.8041329098113,621.1754268786997
234.5347289849235,724.6929379553671,621.3222660133686
225.98236910667765,701.368969015923,601.6499008325984
225.73661749934996,724.4787975506417,589.793660424304
210.3766321832634,751.6450571805867,585.5475621134639
230.216230822962,774.8109701070193,597.5404444942973
234.4235799177089,825.0748216771274,597.4343940081476
231.66014898053874,825.3776773923818,628.7886281247929
247.42904049802942,817.6237553088977,640.8243385865715
259.23531481188786,794.4252114636498,652.8539307510721
251.5558320119511,798.3531583160408,652.7254465082368
273.9131099814922,786.3969857188746,633.4772832720655
254.3733079084091,767.1681970907497,629.3249988528194
262.1353877215971,755.5373139655235,633.404883420944
264.9253312803047,739.7928956371443,606.0275425349126
260.799559482596,720.4448002121011,602.1067336960125
280.5310682037189,708.8271733976435,618.1397317126645
248.20402481989265,689.3791457837285,578.474810460249
249.04936956045137,674.1435658456253,606.011227075505
260.06332437682596,712.5358812642443,582.4996303528728
267.38794593464644,735.551895907369,566.8327104566799
246.94773444550387,762.4397730111712,527.19022296095
277.6381333075006,800.7872209164191,515.7459479026987
277.00998812030616,846.9722076346154,488.10857938235796
275.72820484059287,858.2359929231696,448.80565738554964
253.3444142495144,847.0140159993474,472.0551870414464
246.4286988930981,785.4812805596204,507.4811479965126
261.98039085722445,746.777951696043,519.6188300795889
233.60780694732657,709.0127617484055,597.8137284393754
232.15369162762008,721.229981696094,664.4684984168906
266.8617723687498,744.1399458530691,660.9871872657841
259.7818827020441,736.6338148093387,680.529028771293
241.80428586724318,739.9713459744154,605.6808390225001
260.28052393019027,782.1050001784505,574.4183793650228
259.9807273635747,778.1678758801427,566.5777814034356
264.6530670514396,739.7245746508747,598.1747079787696
253.8838441261797,716.8411231154371,625.5632657431438
254.28459259788002,702.4906568501987,751.2055594927932
259.17413183910924,694.996762401024,782.7005144468295
251.46711670142204,714.3652521503267,778.5951369733805
247.66867380807923,722.1324305445795,778.5125399601292
240.92427077544323,717.5753187887813,696.009340600511
291.49097806080573,700.863189774286,602.632907261909
310.46891650053794,633.9932596758323,497.1779353805837
312.9315311548796,610.442913737107,461.97223312752067
287.9749965584578,626.6054157128071,516.4883013057466
265.14558998230797,654.8862251635371,629.8654484456977
271.0446482743853,655.3695706484887,688.8213610152295
275.907674894077,624.6975266783255,724.3197218214173
234.52861068764565,613.6927493078678,755.1335063451843
209.980982292628,649.2665691138158,817.4402063905616
181.05979106014797,765.8405265814524,848.010278739427
183.183859931781,874.5065848174454,886.9216297104517
222.73457296834295,935.2582176380314,793.117935278612
253.76147818062236,957.2443189060485,683.6197886128291
271.09359465260826,875.5099855710157,644.908302019548
279.02086849229863,809.8535177660059,664.8723060372299
324.7724758199793,739.8591771909878,665.793109777549
315.0117522293546,744.2623117986266,716.6524756160362
271.42398270561307,728.8411435097613,684.6548005690017
203.09891757123995,683.2944991408891,723.0308005282131
209.4446115646016,605.6543264009628,699.840414412669
242.62719685111637,547.0828468437235,669.1377789561167
280.26186312349273,515.6643706056605,650.1843137054958
282.9151647096613,538.5049940601531,610.9007663167341
283.73093768004367,654.566034272662,610.5214318855063
265.4984117919983,743.7983409217215,621.720975052643
243.6040849831492,763.5940917642621,652.7234070758109
262.6809358955403,755.6739559380626,649.111572249443
290.33665930771474,736.3268802292323,673.139145375842
297.6347682439977,716.8553991424188,665.4647611569701
252.5398581574748,667.2951517592654,708.1266283593277
236.17443265539202,551.3187479924337,704.3485797902445
192.86096679294153,478.0378620629879,692.173168207288
173.3476773413959,501.2965691648015,680.0283481107209
139.34625993585988,578.9724319721822,683.1813106412486
164.18348773536326,668.0487220406561,714.6497529737476
165.30109670478708,691.5001555067225,742.0597247785942
184.89494373715797,699.1572045499738,750.1766658338985
184.67672446758067,706.8264901877809,742.2983383724311
161.746365986346,734.0855439931069,741.8629195494894
134.63517103190182,792.1879540923761,725.5627558850373
91.34699413153321,780.7039101018188,701.4056787995902
40.297961077432156,761.5424227437505,677.157846971188
33.609948351373816,687.4845130600155,610.5887331555629
10.245700621517033,594.9167146783051,622.3246470507258
31.259196565595797,552.7249366501303,681.6507166055687
70.2572234147237,560.2667577613151,693.9841842015368
43.55605634951793,541.234774362295,705.4223409625102
1.2771843595927255,537.726950589651,708.7252017763457
-53.02718053565693,603.7066684341748,684.1408635976609
-73.36847955214064,708.8536860191809,742.3513636155059
-71.38003293683369,817.4860936201457,777.3357874503527
-79.57916311890402,883.074240438886,749.5199685927407
-73.31728979824915,871.0670820310708,710.4077335277593
-63.69147466260141,789.3918922363907,671.5810190024117
-55.21151463547696,738.3255240066691,593.3881600750511
-59.119780964957464,749.9268353617189,589.3653796148533
-31.21952960491096,804.0176818791331,605.2994651588464
-8.835300535860872,815.2406785191682,582.0499355029496
-54.121539975424845,777.2185200858602,616.8212386492839
-84.9487847532032,758.1467677545339,620.3484370299747
-111.32343868701341,766.2290384585971,635.624805616597
-129.1439992250157,701.088547057354,690.5222476584767
-134.8034242070432,624.4232230170344,765.263367204907
-119.14262260812818,543.2660490585471,789.3194923852692
-112.3910815620013,581.5859646260446,753.9700101461764
-131.65963912243222,620.3535356110395,745.7011313751384
-148.302427434445,697.4022729474387,694.1718119847247
-138.43259420903166,727.7847175131162,639.272330510419
-151.54818414035375,758.3792630510931,587.9530726598789
-168.68043623459593,785.0999066959666,532.6610004435767
-226.52077926713,921.7000708702769,613.7508731320074
-191.90345326895527,937.860533413551,720.1796739967268
-169.84495214981672,902.6578903091271,697.0810623403507
-106.21669989241995,847.6136091325785,655.0493797576136
-88.17526882268666,769.9193914333641,635.9582528182408
-71.49791213105394,730.5022612207024,569.6226540153876
-68.40776411924561,718.694967190631,550.0859110909435
-76.57773041762479,691.6051862766593,542.20554419705
-102.59772705256128,692.0528416941565,569.2871673813178
-131.48016906894813,691.7826168977174,513.9104587193385
-111.36830620038444,734.3261970193696,529.7670458311453
-110.93390709365585,815.5353765047189,525.574992479593
-139.47270474626913,909.0331560726651,571.9272126567178
-140.78304007994575,955.0468304670811,524.6562281716999
-181.2810694783642,966.4380802822576,465.14253083366907
-215.38955708626293,970.7117109308481,480.3159080827806
-216.5897630689379,954.9621940214039,448.9535162364315
-174.41837936502276,923.685458336945,449.6907710584145
-148.37074842071453,869.1785676046358,434.56634018752584
-174.02578862302622,779.8973145773532,379.53837447038495
-199.52685167717826,776.6128086553513,422.33892307770753
-230.7107931862563,842.414076162604,398.1023081276481
-242.4905548785773,888.7917892450532,382.07032982720915
-245.82502689501516,865.7798534667802,401.7212809675068
-265.881825088078,811.6635140440416,389.8293504917582
-272.4151468646276,765.67533255495,433.0571601923185
-249.45725604564254,722.9747161364993,437.470491962087
-233.3620553399989,723.0267216633612,457.33456379089705
-198.73657161212037,772.9499880183346,445.9106830569053
-206.3630291689823,842.5435801216522,433.78727700081066
-244.13739656253668,989.7844829783871,424.8759770155967
-225.90691010691728,1055.028985433354,381.7582966660379
-227.59759958803468,1046.8814528916605,334.66474280207825
-243.17580417369848,1043.0983057415124,330.5195963963229
-250.50144544773195,1097.3166167855486,330.2269378431983
-254.21933076024948,1116.6912248321294,330.1055916138539
-270.3961087629313,1085.7224434439897,314.26939882630666
-283.61774918040317,1004.2960644052761,282.9488153446896
-277.8451356987351,922.6504463807723,244.06499671141526
-275.9005368805862,883.5239352888093,197.13051857668012
-278.4997935074669,907.0396108762933,228.40929369356513
-266.2958298705471,1023.9684295860463,334.16202270908013
-219.99969408513613,1050.6544028796786,330.840807003411
-202.20360673624532,957.4513212972831,307.87475845472204
-214.4983251161202,853.085406331418,308.04199191365046
-231.46640290007292,864.4001774306212,260.6547597803532
-219.36135173581192,883.7564305853681,272.5446508236758
-169.6756792584624,902.5763130120889,257.52729015514984
-135.56719165056367,898.3037020797113,242.35391290603826
-120.12664875365186,921.3625448037812,238.58300235044592
-126.66099024641443,952.6107284342769,265.8512336016887
-137.0488393080206,945.2708111332618,301.04265982776997
-123.19701427092842,922.5851845431418,371.96902102144975
-124.2595585648514,868.2516455670388,352.5138553940439
-122.5046269623164,802.0435112908078,305.6680925698379
-121.87852120754795,833.0959094084117,317.34690235707404
-136.25753952674972,902.988278362132,332.59369917352
-149.319084498784,979.9391229420854,273.2696690511031
-138.1429948045459,1080.16499008326,241.70129452973242
-190.37489866570135,1169.838833852539,272.0133786767143
-222.3572779695411,1224.8423263805685,338.06753580478556
-198.66315204478596,1170.7463812820893,366.0771007428633
-188.13560186200183,1042.9555454716954,362.7416090102125
-156.97817297446124,915.3543768769152,398.95988946276253
-168.83747253139452,834.2696027695494,406.90551819428657
-171.29906746952324,819.2002365741614,450.09049981390183
-151.2412495602474,815.38853737005,473.9508394813724
-135.30920344868025,830.8464154425824,485.9110909433905
-131.29152156954723,776.7912589926225,501.8523145008745
-110.18747482575601,722.0406560854116,455.2584215812739
-117.83942528794238,691.2187138319406,463.0969801104353
-136.91627620033347,718.4481958670902,462.71866539542054
-141.0716197682185,830.3977403088722,430.8821055100366
-152.7983562174647,942.440078926035,402.8562251125512
-156.98021240688718,992.5927814289284,383.001330729658
-174.33170348691962,1046.2900174881331,315.84180122671864
-189.25423054763863,1058.1187255586772,327.35235783881353
-181.02919957375866,1054.3253812463993,343.1865111939348
-126.20823624785223,1042.5476589865043,371.51932617152653
-98.7159733446182,1057.9147823160815,383.6539491059639
-109.14838400473151,960.7429652327759,324.95602473831536
-157.7786502016489,866.8179245715918,163.63488041278114
-232.24954495164,901.8258018793371,119.23031820244427
-248.92802333110697,999.171990435062,173.5964880973625
-207.66826592159404,1076.7999265804326,236.74649345087263
-186.54586428596923,1050.083361800411,296.0225969112796
-150.69060280523934,945.8347141990386,351.8561384366731
-131.77384733828578,779.536335037959,376.2477502511052
-104.58005537059037,694.4206227406913,400.4904834984424
-112.3411154675654,686.7431793731805,400.3997287554874
-130.49104434235954,729.6528376152918,423.5309713306787
-114.0409823945996,741.3795740645379,451.2101482157516
-64.51866845456911,717.677290410079,440.2583960883686
-11.606307964493483,705.4152029490194,413.6203494567463
112.53996012909609,656.3372813346047,227.2631326701779
70.00616928308852,719.4148868369933,320.60387594132555
-17.151932617152646,774.5346270133023,350.51011303554225
-27.268435194485377,844.5004155343569,377.594795368449
-62.74089520886338,867.7417874605497,349.51283057924985
-103.95700876446087,918.5675026640088,372.27085702049123
-130.16779430284555,911.2439008224012,395.45104597390554
-103.05761906461433,911.0695293499821,399.78280044663575
-79.96329021633281,887.7129294917224,404.1318900949866
-79.55468992979254,907.1242473219703,411.92150224592507
-87.01727909122891,961.3119668796176,407.70191655662234
-99.20502924036242,968.9679962066558,387.8704756466276
-131.75039386538728,957.1892542305478,340.3272269327447
-160.00673012700565,968.6620813427625,300.61947759938414
-137.81362646775406,972.1128010074798,273.46749399642084
-95.09802022097251,979.5913997134599,281.9321582803506
-76.62086441343375,944.4866493654816,266.6282573559779
-60.93344822136,905.8169711369327,282.69286657523213
-62.13345026079243,909.3788398688647,247.34134490371335
-65.4979019338918,998.3541780322537,243.06567482269685
-93.75566579820837,1087.0684688451206,187.3983470400188
-124.03929986284818,1145.3656447410688,190.67265579989092
-106.35334186495899,1133.2412189687611,147.80786507115073
-101.81805203611836,1133.3737820764482,167.49858514375453
-151.11990333090304,1033.5537619880388,210.26752254847477
-158.6341921043374,964.1477976679091,230.01228758036643
-139.25754462533078,921.5450740059042,242.2203300821382
-139.96522767713748,878.8872856683986,230.57924979478216
-115.70006067311469,906.0290721092321,258.3236885174856
-104.49439920870023,894.2646061601058,250.68193521742901
-123.59776274262875,879.00761218153,258.2961561797352
-157.89795699856734,933.4370044816529,257.5986702900583
-169.32387716498502,1030.1071211881736,241.40353739554286
-163.88980946602564,1099.9882732635508,272.6456027287606
-163.64405785869795,1057.568078803669,288.49097296222465
-148.63689435230177,980.1104352658656,292.9022652995672
-175.5563826587061,949.4373715794895,300.45122442424275
-163.69606338555982,953.2847608510552,308.4651741420363
-128.98798264443008,976.1957447242434,304.9828432747167
-118.02807278734329,987.5411073098358,285.4858692825787
-130.05154665456604,960.4808981660406,277.54839828075853
-113.8462165979208,937.3894245231554,305.3407636654719
-113.92779389495905,906.4736683780905,309.36864270673476
-106.76428749878909,848.3488245221355,305.7476304344501
-99.90271907328192,824.906568501986,286.30674083402596
-88.58743811597233,809.3079695920627,282.60415126470303
-71.94607740665774,790.1872708825134,322.1640417471818
-79.86968026798144,720.678315224873,330.1290450867524
-102.71805356569268,720.9250865484137,337.63517613048293
-132.6457047003819,752.2833995299109,356.7038693131702
-158.0927227952461,737.4281737392485,403.46805484033797
-136.2534606618978,729.2041624815814,368.50198589732486
-125.39348299368287,720.21842321282,239.18259548367692
-125.44956738539666,770.4098749318066,227.23865948106646
-149.66272886255757,866.8617723687499,175.52987003716868
-187.65429580947625,963.8429025202288,170.709671498422
-227.88108069524253,1013.9201460233619,111.06850963376894
-258.2461900852993,1099.233683265947,106.40126852696895
-267.6000469069458,1200.2875599720599,149.09066806707696
-229.58298705470273,1184.4105785359936,137.94007127816332
-227.44668158851394,1114.4376520014482,102.88630674083403
-243.5959272534454,1068.0303671488227,91.02731309876464
-266.66190799100616,1095.2567900353333,86.66537502613023
-255.59288849913074,1122.0753264366529,67.11751719496465
-264.6918162675328,1137.2385065236347,23.759285790764434
-263.8179194730107,1106.5552456751286,55.27290155149823
-294.8896921986611,1052.673440981375,58.91379828993592
-342.83063023560544,1049.7366582879986,120.999525831961
-310.31391963616534,1115.5695369978537,156.5866019486777
-277.79516960429913,1104.1691097367604,208.132236798499
-273.2237818215191,1103.3227452799888,117.93629832817528
-276.6133185134577,1091.8917265325063,133.62361254862773
-282.89375066918876,1095.1650155761654,62.874783947627385
-314.4315337041702,1129.9883242493615,34.812601652959984
-316.2680426037434,1165.2807023805276,85.68603957518623
-299.3264774413281,1169.4105530430882,129.0970922792187
-307.87679788714803,1068.8461401192048,125.3832858315531
-297.78772567594444,995.0105285698992,98.31114600806598
-259.93484013399075,975.2321129029792,83.24636853563653
-283.51985642395726,1006.1896774127762,63.16560701156868
-294.91722453641154,1048.7985193720588,58.92644277097685
-308.4417206691378,1079.288034140099,-4.172892883910409
-326.89246582676043,1176.1916658593914,-0.8515507334308863
-326.10320547791554,1249.764190625749,6.761309927447192
-308.2632703318667,1265.7023550345941,73.69336113759542
-297.5195403119312,1207.4867564356841,62.27682236033713
-253.92871163955076,1087.741481545686,122.20279096327492
-207.0839685315577,902.1602687971939,178.47583017646193
-221.62104286377107,736.437009580234,237.68565208302533
-232.25464353270488,713.5882283960375,269.0011369835775
-252.1054590507462,830.4436275384561,338.95264947765037
-230.22132940402687,912.0515160630797,397.87389169594104
-212.20804250177176,907.7258798876273,362.83746233423244
-202.91128978805202,914.7925132435644,296.23367816736607
-192.76919233377353,925.9339325865614,253.177180790586
-166.7786654973921,979.5455124838758,214.139385009152
-124.41863429407597,1033.2784386105347,202.819515328884
-123.0542540011115,995.0003314077693,250.0639871923644
-128.74325075331538,991.7046086074248,308.8598043164588
-123.33467595968044,961.1692066098007,360.0638342349325
-68.51248897431846,910.7676933509406,396.37592857907646
-64.84813876298227,825.7284597696463,408.4921966216802
-63.346708610993566,748.8673502164349,467.64287498789093
-42.878658869236695,706.538930215721,511.2632754304477
-11.204845691444072,671.755390474831,543.2517730315654
0.11082479745886721,636.8474453559575,543.5393330036252
0.6558294626605417,656.2944532536595,555.2558722907415
-17.00081067438932,575.747069590533,618.0571346994133
-23.805274991969736,452.4521625631587,669.3906685769351
-34.382383382704596,379.41192965997567,712.6500894800978
-44.38090479419578,421.37733068886934,637.7906828529622
-90.43485797902444,583.9812780103298,609.0795531603555
-66.88033120382599,703.6306995763081,597.2549239546635
-48.705419281813874,780.4459218999353,550.1725869690465
-100.35588095832931,830.6475707810517,494.28500048436524
-142.18922873764234,806.9452871265928,403.4721337051899
-100.33976944216425,859.553466270337,266.55993636970834
-119.00802006801509,906.1952858519475,273.9722535218449
-123.54269806712794,867.4358725966565,262.2608128157934
-77.48935671202705,743.4506176930961,282.99266314184763
-59.311181698133424,665.79005062891,267.8284633386529
-83.54871439278449,603.8983750822147,248.05106738794598
-117.4131839109176,662.2995620318866,259.1200868798214
-130.839787287198,828.9782953404069,281.9046259426002
-137.24054595606043,976.118246292057,289.16194623036415
-179.68521360505375,1084.5599669611947,264.6122784029205
-249.94875926029786,1131.2119837049352,228.08094507298622
-247.15983541780327,1212.0244935834357,180.7548959124676
-236.1469003176416,1269.7200369137272,153.25212993223988
-216.55203356905776,1258.0646805993895,165.3592205289268
-155.38537624978972,1187.9591909571568,166.51149984959187
-86.26748175982625,1113.978779705608,175.64611768544816
-48.76650028297126,985.9840006526185,172.71443357313663
-65.92414331091659,912.2891099407036,137.38534565830332
-100.46733594040779,835.3535611039448,156.74975654275417
-89.42595075790409,877.6156995508151,133.22490350935337
-139.16780959858875,928.2955953358181,132.30919835009917
-153.21949901342458,1025.3042578250474,151.39420699219409
-102.60690449847809,1040.4980293984186,163.87553343904392
-95.09037234937517,1013.353183808946,164.0794766816395
-122.85642905579378,1055.8447584037365,132.1236099993372
-183.14816986432677,1075.9739564479207,166.47377034971169
-250.9562388787201,1084.6211499339736,208.59926682404287
-275.80366384035324,1096.9495189488766,267.05551844921564
-269.349879928416,1015.4752132481532,247.80327634819233
-270.2492696282625,984.3544941442797,228.27163200481306
-275.84751163751133,968.498926748686,181.1464669382511
-249.66527815309001,1010.5724176961553,149.9992352128403
-243.07689170103964,1064.2982058093235,106.7459326069555
-251.3580070666334,1118.281982124375,78.96763930598115
-234.3827912691898,1160.039361045821,4.513294550126701
-227.76687247938898,1179.0162797693404,-30.773199818490518
-235.30971330678673,1182.9727786756948,-26.97496086839033
-234.43581651226467,1132.9964870776464,8.528345561430255
-230.6363539027089,1086.6095965492805,16.590986728393492
-215.7403394635273,1051.6027389577482,9.08297940683108
-160.23820570735165,1078.6048242774038,49.069457969846994
-110.8247974588672,1078.0439803602658,30.188392570347677
-136.84387634921202,1059.189427582304,61.259247551406446
-182.0489157867366,1032.7685805040458,95.99282119786065
-157.67361943171215,1056.0792931327212,127.67662759454046
-129.88125404699875,1056.0792931327212,151.63995859952178
-124.96418246801916,1033.135678340718,187.11282650038498
-129.0063375362637,928.8513406718911,203.10299643609187
-98.09618983037022,901.600444596269,211.50647774724297
-79.18351322826858,909.087201031953,199.99082255408322
-91.26245965747734,932.2174238909313,180.10941554965257
-95.55342548168845,986.2042593546217,156.3143377198126
-98.91787715478785,1075.178577801798,152.03968735500914
-101.78888815242719,1040.7019726410142,187.43505682368598
-98.45166290221432,947.8547720169478,191.7219437830452
-76.81073557229024,898.0966996884769,270.70712220788954
-14.20056798193063,878.5507793181159,303.10758515905025
-2.612584317784361,863.020501394462,307.25783014587046
-60.99514105224517,845.0082342084198,404.5601709044373
-108.00834127862217,819.134974736531,498.13340947214397
-132.21946332335713,799.729775203561,470.364497560329
-144.35204682536852,795.8140649457257,454.4977132863924
-151.7317330586898,784.3697898874744,466.1989568303142
-159.92923169481935,772.7205518704145,454.3416967058068
-186.14001723320402,804.0156424467071,469.5426062926688
-164.03053030341658,911.717049145223,418.48949437371584
-176.69234651996354,993.625753952675,480.81760845956575
-208.80932836391634,971.365349023367,558.9044169007766
-208.86235360699118,886.3903575634902,574.8884685392056
-182.56897105535532,866.7016769233123,559.6508491686764
-195.79367062146608,881.8210092131361,508.38155741257214
-215.36100503229952,897.3421096908731,496.26223022132945
-204.04623393309643,881.7435107809498,492.5596406520066
-220.46774382689298,835.2668852258417,472.8475065389303
-197.53738534565832,808.0078314205158,473.2829253618719
-198.05540118185112,811.739992760015,457.56399993881706
-168.29090464123834,815.0968985331383,426.6013368479553
-144.8710823777743,838.1649187031251,430.7984887805724
-145.1433466066394,818.7872515079055,426.93580376581207
-133.63686885939643,772.3412174391868,435.113927793895
-106.77142551227993,756.6579820835863,435.5697409410962
-68.2101431171705,798.847720679335,428.1553843565336
-22.98838033375312,911.2265656467806,487.323397898365
-3.230032681904626,903.4777421443613,503.3431396042482
-27.11456001794701,911.1878164306875,479.4124395180822
-38.512132073643905,953.7986978223961,475.1724595045199
-58.380078824063276,984.6930399269884,451.22340452652037
-85.5446049364462,957.8194388501681,450.9072925004972
-67.58566890834281,926.4478695579021,419.88446615306964
-97.56675317259207,872.8311910795227,454.93823069039894
-100.57491600087697,876.9345291205459,478.4273936563455
-104.07325641274035,850.0201393952065,494.1636542550209
-84.45136718451255,842.236645541546,506.2585082571521
-83.28022311390741,912.0453977658019,525.6626880739091
-105.85674006923874,950.9791824935122,533.0433940234433
-124.60524236105093,947.3958997211078,548.4727200420124
-121.7327017890921,885.3298527019931,533.0260588478227
-125.61170226326014,823.5625825332811,544.9506202423867
-95.16603529237814,827.0908006301846,533.6205533999889
-106.1269648656779,835.0547842535424,549.1283975669572
-105.99032289313885,835.0884348885706,553.0553247031352
-109.21568527478804,788.9330199405506,580.6345693993362
-121.64806534341494,742.4604732502945,564.9064665303647
-106.75205090423337,746.0733277928754,549.4190166876558
-95.08323433588434,780.7681522232364,545.5522528080436
-105.66299398877294,842.8943624989166,560.8826663539537
-127.4482111628334,858.8559803806601,595.8242621078555
-116.05084305037909,835.5544451979015,596.0730728638221
-116.78605843993618,808.3361800410946,580.4561190620651
-131.27418639392658,843.4450092539247,599.7430315143297
-66.14776707642264,885.3237344047153,580.9547602902113
-23.896029734924774,884.961735149108,577.6641360709316
-28.184956126709938,842.4018395680482,573.8187862317917
-42.23491202398373,823.5534050873642,616.8426526897565
-64.59188407866093,816.2002314755804,640.0799457510976
-65.51880611625785,800.5200552686188,616.5714081771043
-27.555995166545156,757.5981604319519,609.4354341186848
-27.22774851758756,707.4750296992348,629.2332243936513
-14.793634931398595,657.4008453447407,664.91003553711
-27.58036638403533,618.5629139410503,637.3766780704931
-43.04895147680401,630.2539603228422,633.1815655703018
-59.064206431350165,699.7364033589453,601.3103353336767
-20.422060540551566,772.841898099759,589.8680997078513
-5.690791452738703,811.1709911131733,562.487699673181
-22.112648050047675,764.6943655580652,542.7745458438917
-51.13978779705609,730.6266665986857,601.3246113606584
-54.66494674532078,680.5341273523579,621.0632580952722
-34.44356635548328,699.934228304263,644.8491584791954
-42.64198273620452,726.9036827051033,625.0115992719227
-43.160508430503796,749.9451902535525,605.3035440236982
-57.56512162665131,738.7313710594343,636.5221558840175
-56.09285535835377,754.5481892389349,675.7373822865097
-55.92898696292822,739.1423166932643,683.6412026533017
-75.46929889411777,758.5322204830396,671.5086191512903
-57.59397959547858,812.0999525831962,620.5758337454687
-53.63095450536116,788.9269016432727,628.5622511255118
-45.15986600928962,762.0257682287021,656.2526448889275
-49.42034231873271,665.4056176166174,664.3644873631669
-25.91700529742573,622.8426628869186,684.4824685290084
7.755737178343267,595.2878913798291,661.5327354397273
43.064247219998684,587.4544314317326,681.7108798621344
-6.568899675220387,672.9188866738388,676.7540393508488
-46.74929767045831,735.5896254072492,726.961806529243
-53.06592975175009,759.1695431161509,762.1083652419533
-60.47253649309398,743.8564647458613,773.8228650966437
-46.7497055569435,754.8989716161993,722.9716569878603
-40.59704384269858,746.7259461691812,679.9202581921452
-48.521156562128766,696.5263367204908,683.8961317065462
-48.46548005690017,646.3359047177172,695.8400677091566
-75.03153472388635,685.2656105805755,699.2347029821601
-136.2779338510093,705.153135882284,706.0994325279275
-125.29049165617211,701.0589752871776,690.5793517664034
-144.20214854206077,674.2628726425437,706.0851565009459
-134.3333350328604,685.335970999271,655.1758245680228
-107.11303044362754,642.7077544319417,671.426022138039
-95.52477145610378,627.1784962245008,675.5762671248592
-129.9057272361102,631.3827861706088,682.8968098178278
-129.22455680584096,650.8634447033392,698.5392565249092
-139.50329623265847,658.9977209342641,733.6796969403416
-61.36142311594684,611.3331259910367,664.3675465118058
-52.91837681573219,619.1818816823279,684.0908975032249
-50.19175763385051,639.1754574701861,758.6321526719115
-56.308423365777315,627.0520514140916,695.7870424660817
-59.19931882956974,641.773694380854,609.3528371054337
-72.07007489815585,707.1864500109621,557.9193710390399
-57.31202806259018,768.6936925453647,526.5355651522182
-101.1463649666298,815.0010452091184,474.70237033033715
-101.91166198446973,899.7710737101867,435.1587953072661
-82.29293387650218,1046.4633692443394,415.3355121269751
-42.66992296044012,1162.2929338765023,423.3871913446488
73.50522349630099,1223.333146385361,428.8457322327197
82.27702630357972,1161.752484283624,472.3560033242749
85.83298068147636,1041.9256320965876,488.51238700269727
89.67047870577619,898.0100238103736,406.6383525464864
35.152677009988125,739.945853069091,422.0534025380737
1.0449235977627427,705.5997715835684,445.2060591537376
-44.0242080628961,717.8363661393035,475.88626085360454
-56.34951792916032,783.3867834581637,440.15846389949684
-63.29347942467613,814.5329954673615,455.64795317463154
-62.856836942278974,799.1944241917475,471.4056278137795
-63.61978861282906,768.1083754391153,455.7998908903653
-35.391188632203665,772.0760912238126,491.53074699311185
-13.697236059204725,787.9836641462682,558.5210036046968
-47.53223577878277,753.706923363228,589.5264947765038
-51.95912977418385,788.3497422667273,565.7956590680815
-85.46945185154974,877.7350063477335,580.6906537910501
-93.5878205095522,993.5482555204887,544.8568063507926
-81.89351103587872,1109.3492680986883,525.018227427307
-94.76263555852408,1097.5205600281442,489.5443398102309
-86.34518413525517,1024.26414728781,525.2384861293103
-44.118633784217856,923.4906925402662,541.9098264952864
-10.852533739860197,779.9768524419654,531.1181698133411
-14.34893669091892,656.5157316718759,566.8041584027166
-48.782611799136305,556.435683949157,594.0978825592838
-70.26670677550439,537.7157337113082,644.859355641325
-100.68535126674247,538.0563189264428,656.1761661729541
-107.62900684739438,530.5838385177406,679.6459545308542
-88.11571739584875,526.6344776248771,687.8006250860386
-87.1612630205014,526.8741109349269,715.2860558906458
-104.72791422147219,472.38659481066423,664.1870567421088
-81.2712802027196,436.53847134342516,570.4679987559463
-67.90310656544284,455.21559350032896,507.81153604951754
-90.154945878562,637.1217490172486,495.0905762926178
-92.8112046417482,768.7569149505694,502.45598649895743
-93.35909816298125,884.4763502317306,462.81145957080156
-125.52400666894404,946.1691811168953,411.10165041069075
-129.8139527769422,942.2279779537356,399.2760014887857
-107.61880968526461,868.4402930664396,388.08359633514
-104.03654662907316,791.1050154741937,396.2474443362413
-112.4797968725304,783.2562597829025,376.52511306103514
-150.08897023958235,857.1622317509037,387.4860426343349
-185.54348324861195,966.3646607149233,453.3046453172083
-198.66723090963788,1001.8161145753138,511.8577699826139
-215.20804760035284,1002.6482030051038,590.0995752881973
-238.00074439283551,952.7045423258709,609.5496423345384
-229.8287386620304,902.5569384040423,633.3895876777493
-261.8529263306022,751.8806116257846,629.4932520279607
-301.15074974634564,701.781954082179,617.2994855531706
-335.967940122264,702.015469094951,612.8525031483739
-372.2861527636859,759.8017671681972,553.2449919187491
-390.6828529620207,864.4399463629272,556.5407147190937
-419.87732813957876,1000.2539093370316,575.2688226866464
-410.89872688430813,1071.0283328149776,708.6007963983624
-419.6693060321313,1055.3654917836368,681.0501037561247
-383.0431390943901,1073.9039325355754,622.6672716982864
-285.7713898222125,1045.3620757343233,545.7276439966757
-238.2934029459602,1001.8395680482123,479.86723294907034
-269.4742853063993,971.0941045107148,475.57932627349817
-309.4542988686249,978.7521732701791,431.7835346423091
-321.507344506024,1063.676178919407,399.92046213538777
-313.145671559605,1021.3069702701738,427.6608219932394
-308.99032799171994,947.9740788138662,451.5181025120709
-262.96543671896114,858.7387130161677,464.28189034991567
-262.1455848837269,801.0156373481261,499.8108426424926
-246.84066424314116,766.1117710941046,504.0824338586572
-225.40928859498408,719.1670957972398,465.31588258987523
-223.46468977683514,699.3489111980136,414.39125491375756
-261.8100982496572,765.3459642181582,405.74508114391773
-296.6558406795389,838.9490804709051,385.3517766005721
-314.56103766321837,916.6769488051476,408.3688109599099
-296.330551207599,923.9923929170513,377.2205595182861
-317.2683842086748,886.0997384427915,447.6778512539961
-315.57769472755734,894.2472709844851,494.77140511795574
-296.883237395033,890.092947132813,479.3665522884982
-271.7360158667843,881.7027221324306,428.75191834112576
-262.00282461391,873.4307842127536,377.90580881340725
-268.31894683709527,877.7013557127052,417.04251706750017
-297.945781688956,835.75940815671,459.91138666109225
-248.3396470762187,746.4261496025657,464.8804637669337
-253.97459886913475,770.1773796352476,519.660638444321
-268.1364176349722,871.020175085274,534.8064833556822
-310.55151351378913,886.7880468865516,530.19328720817
-295.98384769518645,882.5949738187863,506.8774759984297
-312.732686493349,828.3124206533323,479.33800023453483
-283.26798651935167,808.4228559191978,444.52488872346834
-283.7584700177941,777.4051281528351,436.77300607241017
-286.9552803454799,715.8081505916904,468.3291439992251
-294.60825052387924,704.2965742633826,472.17857270321673
-346.32111883262894,732.3071589176733,530.1790111811883
-388.71887953582524,795.4184150550902,627.445661872301
-413.12986595830387,850.3362514212296,689.6891395124737
-433.59862950140985,892.6646714219434,646.0687390699169
-395.1655254342717,929.96385106025,524.8560925494436
-328.71265926692604,916.1171246042228,333.59098162981246
-333.2483569822519,935.2847302595688,309.911131732039
-362.93025650961346,943.5342344225603,340.8350456068077
-331.0121193271913,943.5699244900145,372.71035470828474
-326.09402803199873,901.326140934978,412.17235243431753
-310.05287228564293,874.3311936288133,436.05206670983466
-316.74934865626904,843.7488846853921,471.37605604360317
-308.33261103434916,809.1101446467449,499.0919427123432
-277.0681119444459,774.2246332845571,519.3006786211398
-276.6306536890783,720.2673695910429,543.0366129106271
-270.2859794119297,661.9375627762795,515.8560772537004
-291.19831950768105,685.841750240908,574.3317034869197
-267.5337653531023,743.7279805030261,578.4156669198962
-275.32337750404065,770.8004262413772,570.3588891211576
-257.474264912075,781.8816823278082,527.4176196764441
-241.81448302937295,777.9618932051211,535.5151861237018
-247.52183467341044,746.6321322775872,488.4389674353628
-262.1445651675139,743.087598721276,511.7802715504275
-262.8532679355336,739.0474830854574,492.15991189651925
-277.47701814585,774.1216419470462,507.5209169288188
-288.73876400197827,816.7671936899962,507.20888376764754
-287.4314878169406,905.9189427582304,526.5508608954129
-275.78938781337155,917.4356176676031,526.6864831517389
-295.1660352923782,902.1092829865449,526.4478695579021
-280.4596880688105,859.3321878521209,515.038264850892
-278.4865371966982,804.764114147033,472.0806799467709
-256.456588131523,765.6926677305707,448.99532460116353
-282.72039891298255,731.3221130559366,476.19013628507196
-290.2632397403803,696.6660378416688,487.967858544967
-321.09028057491605,677.5942855103425,491.49505692565765
-311.96585990118956,704.923699734364,526.8608546241582
-318.366618570052,813.443938551901,542.0974542784744
-322.1395685580703,883.0079588850424,530.0321720465196
-280.5433047982747,944.2725089607562,495.1272860762851
-281.4437142143342,932.461136065833,471.6054921915231
-281.19694289079354,909.3513075311142,483.4617325998175
-261.92940504657554,870.5837365461192,491.73061137085557
-273.97939153533576,839.6557438064987,483.80435724737816
-296.74557570628093,793.5798667230911,503.2421876991634
-281.4396353494823,777.9863663942325,503.52362937394525
-273.323714010391,778.0291944751776,515.4196387145458
-280.48518097413495,778.2259997042823,531.0100798947653
-287.5650706408407,770.7188489443388,550.5519214002744
-261.40934977795683,808.9235365797699,519.4179459856323
-270.3706158576069,785.497596019028,487.96581911254106
-274.9338459106831,800.7974180785488,464.2982058093233
-290.183701875768,824.1285250314838,463.991271229217
-282.88661265569795,823.9663901536203,452.32775718517536
-290.40294086155825,851.107156878241,452.12279422636686
-282.01475529360187,870.5276521544056,467.88148858172775
-276.87946444504496,878.543641304625,503.2534045775061
-281.11434587754235,863.0296788403789,495.39241229165924
-293.0572621639398,866.8852258416483,483.4270622485763
-276.96104174208324,847.6278851595603,507.28128361876895
-278.541601872199,816.3358537319066,468.1170430269256
-274.6340493440676,804.7345423768567,472.13880377091056
-286.60245853578954,785.4109201409249,464.175839863766
-270.47972549239546,789.331728979825,484.02665538180725
-284.99436606792335,801.2624086716668,507.3169736862232
-269.63540046804974,812.7158611758349,503.58379263051097
-292.3465199634942,812.9962831344037,515.0168508104194
-285.42978489086494,777.9812678131677,499.53959812984056
-270.9702089908379,777.6233474224125,472.28564290557944
-278.6496917907746,781.5512942748034,472.1571586627442
-255.36651149984962,804.5856638097619,472.4284031753963
-255.33999887831223,827.7638133307502,468.4260170394579
-271.1904676928411,881.8393641049697,444.4575874534118
-273.9814309677617,936.2024748512491,463.8556489728909
-269.4742853063993,951.7837385855518,479.5694758148807
-295.95733507364906,963.7011619666248,490.90668067076933
-296.39377361280356,940.4210408243387,483.1293051143867
-296.47433119362887,890.1959384703238,491.1463139808192
-289.53006378324915,859.049726461126,475.65682470568447
-297.7275624193787,828.091142235116,467.7897141225597
-290.29281151055665,808.6533117833308,464.04225703986583
-287.0939617504449,793.0118847924624,448.4436581299425
-279.0871500461422,796.8898655504174,456.40050373980927
-259.4657706760209,808.415717905707,464.50418848434487
-270.8621190722622,812.4079068795155,468.2445075535479
-274.27918810195126,797.0989073740778,483.9440583685561
-270.86109935604924,773.7892144616154,476.22480663631313
-267.38998536707237,796.8348008749166,460.4997629159805
-259.4382383382705,812.2845212177452,464.4919518897891
-243.99769544135867,835.343363941815,460.72104133419674
-251.56806860650684,835.4371778334091,464.5317208220953
-252.3318360500273,823.6594555735139,444.93685407351137
-259.2485711226566,858.67447089475,460.4130870378774
-270.8906711262256,866.4671421943274,456.2883349563817
-286.14052709131056,870.4889029383124,459.970530201445
-274.7166463573188,870.365517276542,456.2179745376862
-275.20712985576114,858.6571357191295,444.47594234524536
-263.4294075958661,870.2074612635305,448.5384917377494
-263.4559202174035,866.3386579514922,448.5507283323052
-263.7016718247312,850.8297940683109,444.674787006776
-260.82913125277236,846.6917856760465,417.2597166208645
-279.2513243564316,850.9144305139881,440.51638429025206
-270.6173871811475,866.5354631805969,464.1411695125247
-258.7846002457516,885.8244150652874,468.17822599970435
-242.85357385039745,901.2822931378198,480.13847746172246
-262.7747497871343,885.8193164842227,464.1941947555996
-271.1364227335533,870.2676245200961,448.42224408947
-300.62661561287496,847.6696935242923,491.22789127785745
-306.9437575522732,871.2485915169808,526.3754697067807
-300.1361321144326,859.3780750817048,502.9699234702983
-278.5691342099494,812.4670504198682,468.1292796214814
-269.95355192649885,780.743679034125,389.8731982889162
-262.71050766571665,792.1543034573479,374.2440078926035
-253.8848638423927,796.2362274578986,405.7593571708994
-246.61428724386008,772.8959430590468,398.0982292627962
-263.0908618131574,757.3014230139753,370.4312889722791
-251.01334298664682,792.099238781847,378.3442867849878
-269.29991383398004,834.9742266727171,397.5486022240011
-276.8713067153412,892.9960791911612,389.3908725201777
-279.9080215975894,951.1596722632094,400.92284317274505
-286.63305002217885,955.32725242565,428.2797897345169
-267.50215415049996,955.1447232235271,424.6424620028247
-267.80195071711546,912.588906507319,424.7821631240026
-253.14964845283558,842.7638388236554,417.3871811474867
-260.8831762120602,781.0261404251198,429.2536187179108
-278.6496917907746,762.2419480658533,476.1462884879139
-300.35231195158394,751.1902637495987,519.0294341084877
-313.72079150372457,732.5131415926949,581.6858968149165
-358.59850203688313,733.2126669147978,620.2576822870196
-377.26542703165717,741.2357940785081,635.6492788057085
-365.3235304614726,737.3802470772386,647.6156485650044
-407.0849882477707,749.4506278902581,662.6472852605121
-402.59619747824183,756.3071997063217,568.500966181112
-422.3817511586526,779.4975858218659,548.5033115284017
-410.87629312762266,790.9806100962103,544.7120066485497
-456.16494929461135,868.8145289166026,555.5454716952272
-463.8189391892237,973.1590298419952,535.4550228671361
-459.6126098106897,1004.1125154869401,539.3381022061561
-436.35492242508917,1023.2750225612214,539.622603029577
-402.1648575201522,1011.3015147884345,528.4006261057549
-444.3617341293919,980.7814085340052,539.6460565024754
-475.1887749639276,961.709656202679,543.1732548831661
-425.6937894184049,972.7582813702948,524.2534402675735
-379.7525148751103,968.4642563974446,517.1072690470243
-364.96561007071733,956.6018976918724,501.6708050149644
-339.43599496260197,944.4458607169627,462.8471496382557
-320.6048956575386,940.3251875003187,451.36922394497617
-317.0787169930609,932.4896881197964,443.6000061182973
-308.00732156240923,894.153457092891,490.9607256300572
-287.7312843835561,901.9818184599228,518.7102629338256
-270.73669397806594,933.1545430906581,558.105979106015
-243.16254786292976,960.1301157887762,570.2018528243591
-198.58565361259963,974.8028123773155,519.799319849286
-188.36197886128292,997.5496219402141,476.7050929726258
-155.34458760127058,1031.6264983455105,422.14007841617683
-77.72246383831381,1064.9304298613697,321.15044383148177
-24.120673216643812,1086.5993993871507,196.29231184961228
19.584159728347604,1112.6327543044772,118.36661857005195
51.092370993152606,1170.5016493909745,126.49273707127307
86.07302187801136,1193.4758556693673,130.86426047630945
82.60221380389838,1151.127041344394,150.57741430559878
67.73577113489317,1054.8352393528883,186.001335828239
49.73247745152525,996.3718497142246,123.13481158193677
43.806498651425315,992.0197009172348,64.19184940830968
56.465765577439804,1006.6577271545331,-18.084972952027453
51.13917596732829,1029.485094298257,-65.33719465872647
15.585546542397253,1021.8168283766629,-89.39158632152673
-2.4265472918886677,987.5207129855762,-46.374959848674116
1.2365792599919445,960.409518031132,-46.22863057211178
-16.829498350609025,899.0695089556577,0.8031784554358523
-32.02388175370795,833.591491487919,20.41961322164042
-31.25970642370229,806.749501613701,47.99396328001918
-34.81331545430907,810.7161976821851,55.77653938908803
-54.2713362871113,803.0938189901751,51.58621955509782
-31.668408681863838,787.3371640672402,40.20404521421688
-12.019598945613438,802.731819734568,48.29569730743935
12.137172224969794,814.3994126434615,76.09051001106393
19.163118904009018,775.5502643614283,64.55293091932516
27.252323678320327,752.414942921385,80.45061259451495
30.61555169196413,721.3666236686331,72.7565478527326
50.919325151810256,713.7544421387528,104.48318233035747
57.617331096755784,705.7180586642738,77.13837039152004
43.45663401875259,767.9421616964,100.2641064991613
31.568374521370707,798.8436418144831,84.2833179526138
71.46528121223864,856.8165479547043,112.15756654922937
96.65767616872225,899.6385106024994,163.41054284592602
85.04219075831197,930.6093314230651,155.28340462849192
103.98250166978531,922.6545252456242,147.7446426659461
147.27149434312432,876.2105306093315,183.87114865932813
176.8177716141598,867.9273758113118,149.02030764838148
178.62572845976968,848.0745208608445,94.16926269419221
182.01526515170832,859.5147170542439,78.48296818995274
182.66992296044012,875.126572274936,94.13856923618158
188.49454196897005,897.766311635472,35.280141536610365
192.92011033329425,940.3608775677731,43.05190865382165
189.39189223639062,1006.1244155751455,38.852615317157245
188.7097020899084,1044.5768942503303,11.240331815655704
214.59315872392713,1063.4008555419027,-23.75704241509588
220.60846466428396,1074.5055651012324,-74.7244981721587
178.95815594520047,1024.8045968806882,-43.783758979875905
192.65498411792,974.0553603932027,-82.65350552941118
189.78244354596117,997.5027149944171,-59.22797285515442
210.0860130625647,989.8895137483239,-27.50113443428694
209.7597038744118,962.7742399290279,-31.339244288314568
205.87866396781777,978.244354596116,-35.37415937144693
187.81133210627485,974.8323841474918,-0.31169971396960233
183.4938536605263,967.0223776722939,-12.12391591420108
172.64305343822815,971.1512086186416,7.322755477150711
164.55466443688724,955.6678376407847,-0.5954092376091734
152.83098713628,951.8540990042472,-4.682781581885762
163.84596166886757,932.3183757960161,-16.225724380904797
160.78375388129487,928.6851269291758,7.288370646449094
152.96762910881904,932.5784034303254,3.2335405056772704
138.07161466963746,948.2748950966948,14.731330270785643
137.49853415794385,963.5787960210674,-4.951996859274065
136.67970203892258,982.6831792712089,-32.50100696976032
125.06513437310397,994.3446538828244,-36.63901536202476
124.46452152365998,1005.779751495159,-56.30964702523288
144.68651374322528,1005.870506238114,-28.53471878776137
152.63928048824013,963.3921879540924,-12.57381470736694
162.48260109211608,951.2861170736185,-59.48096444759424
150.35001759010467,908.7506946816701,-67.36846935497852
160.46560242284576,858.0942523695657,-98.44299531440402
186.40310401615233,884.6588794338536,-133.46555653561617
178.0699831236967,872.9759907817655,-149.24974379630152
212.45073496046052,868.7706811194445,-156.56926677305708
239.18055605125096,833.7444489198657,-156.0512509368643
270.66225469451854,849.117690546721,-139.93259675832218
272.07966023055786,876.5062483110951,-104.68202699188818
230.37122768733465,954.2422743750416,-101.64490422315471
212.79437932423411,1001.158397617943,-62.820229130233066
209.34875824058167,1039.9065939948914,-59.077972600225365
212.27534377182835,1043.5061922267034,-86.51853589146141
222.20024167274252,985.08053208792,-121.49408819525526
244.01299118455336,953.6793910254777,-152.45879071854304
227.2906650079283,922.5749873810121,-184.0016723345893
243.24922374103292,941.9016687655827,-172.05365746712692
245.73937073312499,960.8398382730088,-215.2508756812979
227.2356003324275,953.4560731748356,-191.95545879581712
214.91131018237627,961.0774321506327,-215.71382684198988
192.0360163766424,976.764746371085,-212.1845890288733
188.4007280773761,949.8167060107173,-200.37423585016293
189.73757603259014,926.9801614210766,-157.10665721729643
208.97758153905772,922.9624795419437,-156.80482121825497
216.93034828407255,919.1028536758222,-148.82350241927674
208.4605854190779,907.3852946724928,-168.5335970999271
215.07650420887867,907.0518474708489,-199.8307271086457
217.5656314847578,925.990016978275,-243.0279453228167
205.10571907838053,914.2673593938807,-266.7220712475718
205.5686702390725,922.1079573554681,-254.96780246057523
220.27399774642717,898.6391887137811,-270.3675567089679
224.1550376530212,902.4784202556428,-270.3216694793839
232.97966176013216,925.8707101813566,-242.7964697424707
224.6445014352506,952.8065139471686,-266.55993636970834
228.93444754324875,956.7477171103284,-254.7353071640163
213.62952690266303,953.0318712302368,-251.0276190136285
197.3436392651925,964.5179546532202,-278.78225489846176
220.49119729979148,948.8989614190372,-274.4576384392224
269.35905737433274,948.2045346779992,-309.04539266722077
261.3797780077805,967.5047034410325,-321.0036046968129
260.6975878612982,986.6427373262023,-344.6263504866596
287.88934039656766,998.0747757898978,-340.33334523002253
284.82611289278196,1013.7508731320074,-320.8088389001341
280.4280768662082,994.3344567206947,-332.5824822951773
269.1673507262929,979.0509501205815,-320.9261062646266
249.21966216801866,959.719170154946,-336.85815237619374
240.58572499273455,944.0991572045501,-360.4829375984664
287.04501537222194,955.3823171011508,-355.9003329373436
309.1830543559728,989.7141225596919,-391.0061030015347
282.61740757547176,1009.3344822136,-383.6202984709356
277.75438095578005,1059.3117935278613,-423.10880881850585
254.68738050200633,1067.2349885026997,-423.48100523624277
239.6832761442491,1048.145900995753,-407.9425695828851
215.99118965191988,967.0794817802207,-408.0241468799234
204.48573162088996,955.5964575058762,-404.23284200007146
165.7059240413393,940.3853507568845,-408.68696241835903
169.8592281767984,963.6022494939659,-404.77839017401465
154.41868527988663,959.8527529788462,-404.9976291598049
142.61241096602816,963.7419506151439,-413.03605206670994
127.63583894602132,929.2133399274983,-393.52072318273827
124.2463022540827,898.464817241362,-373.84529885332915
112.16878342757212,844.35765526454,-377.76814712465523
85.27631760081171,856.1720873081022,-378.2107039610877
96.80900205472818,871.522895178272,-382.01424543549535
77.4870113647372,883.2435133302403,-386.26850147603926
34.66270336965223,879.6000673012702,-398.6713097744898
-2.7815105056262848,899.4804545894879,-371.8262607516329
5.497606216190035,922.7361025426625,-360.0077498432187
-13.169940805473837,930.7592297063728,-344.61513360831685
-29.456236329429522,922.9349472041932,-368.38063966798046
-59.79289563714419,915.5725961464925,-353.1114090948489
-58.97396154650161,877.1588666874011,-321.5726063436546
-62.33555801420466,830.9698011043528,-297.9202887836316
-85.94535340814653,742.2014653321982,-294.0494460391674
-97.53136902000175,661.1850122111017,-278.25098275150026
-90.47778803159082,606.8943013159438,-285.81115875451866
-133.19227259053807,560.7970101920636,-286.29552395568317
-140.27216225724382,572.5992056410702,-270.74383199155676
-151.66851065348516,557.2820484059287,-263.0133633809711
-159.97511892440338,568.7773092748289,-282.79993677759484
-190.34022831446012,596.1648473229901,-275.4977489764599
-253.03238108834313,604.1043577572362,-307.8604824277404
-279.4063212208043,592.8772822523492,-288.59396429973543
-302.49881457990244,558.3058434837585,-280.97464475636434
-325.3741083856363,535.3744652863109,-269.46612757669544
-336.52470517455,535.5671916505637,-257.85971764058064
-379.4313042680223,539.6256621782159,-274.2149459805336
-416.24917785380336,609.8688135092004,-239.68123671182315
-480.5596202576823,664.7417823619687,-217.28215037754995
-560.1464312481836,700.4583624377337,-187.19746294606213
-620.4116594351792,743.7646902866933,-156.849688731626
-680.1578520697691,725.4097984530906,-98.81325427133629
-706.4767275267294,663.99229094543,-67.60341197044863
-736.5930261608196,591.0326156230722,-32.48673094277863
-777.8894933539997,533.705189845666,10.258854960664449
-858.6489779894256,557.542076040238,8.968750796653293
-941.5437483748274,574.1165433659813,58.69119424064283
-1004.2083688109601,605.2342033212158,22.325972681802657
-1015.851488530742,613.026874620793,18.20071074220045
-1028.3939979503707,589.698826816497,-5.456195540781001
-1053.4484253032383,566.2198610126802,-56.77239424268227
-1074.6279310467899,527.2718002579883,-104.05388180469377
-1099.3254577251153,515.4675653765557,-147.5549754503322
-1154.7470339004656,500.0667914119501,-187.57883680971588
-1170.8483529033872,519.3241320940383,-211.43305817990853
-1213.3705189845668,538.927156572326,-219.98541805815444
-1256.5453034420523,581.5370182478217,-252.17276032080275
-1291.1238802241337,635.8980895616751,-260.7230807666227
-1304.5739370733127,682.8529620206698,-213.98744729341828
-1307.694268685025,710.09977923144,-198.42759759958807
-1306.54198936436,698.8013235916445,-163.0505830227448
-1317.0450663580327,695.2955392514265,-131.79934024361023
-1299.801665196576,664.7397429295428,-72.56871612630205
-1287.0144238858327,645.649635706383,-33.06654158147788
-1259.6860293780244,599.1872861782566,-12.877384223970472
-1244.5432436153021,521.7622735592686,-4.5400722978795
-1212.9728296615053,471.5045402864383,27.499298945103583
-1194.6077406657728,401.6162501975701,16.236329429519767
-1197.4527488999813,332.3846573498596,59.59812984046541
-1181.35142989706,332.4366628767214,79.46209969765415
-1189.2542305476386,324.72454915796936,75.4452335914915
-1216.4194704613708,297.851967797362,75.12901959384703
-1200.1244053779835,247.74719195647853,110.86354667496036
-1200.1244053779835,228.43784574752848,114.85369621634301
-1190.4269041925634,221.15401283822715,173.89220579912612
-1161.8748502291814,213.61932974053323,221.44157281028694
-1134.352709640907,213.5479496056248,237.55206925912523
-1102.8740701462784,190.30249881457993,261.65000280421964
-1057.0888121835694,162.7956539695003,254.5792905834307
-1041.9766179072365,120.12053045637401,254.94944756874165
-1038.4280054860733,77.53503999836846,255.14625279784642
-1016.0656289354674,46.2699290787374,239.88823910305766
-992.753896590579,34.5535937348636,248.12652638770632
-969.1148353413246,30.643186001335835,264.1921553231736
-962.5539812270246,41.881988242672065,228.93036867839683
-981.4941901668767,49.83659047687029,236.46913064094267
-1000.0244731891115,19.275083744193992,263.7669336623618
-1008.1118424742396,-15.518143300719412,259.83898680997083
-981.163802113872,-77.5234152335405,272.2254796490137
-954.679732630409,-128.05902117440718,268.8685738758904
-947.4632009911643,-159.1369121973355,261.23191915689864
-960.3044872611953,-167.0927380909893,225.74477522905377
-963.6124466560957,-186.23587055722393,245.38247005858273
-979.8983342935662,-213.36847955214066,225.60711354030175
-953.9873453217971,-248.6006944267411,202.56662570806546
-950.1603503744909,-271.80841571790575,206.62713566814358
-950.9230981017984,-302.8954841867509,191.02139874472937
-967.8361112102502,-341.7711450903214,155.57810261404254
-964.4455548020986,-388.26000723998516,151.86123701773798
-944.6600011216879,-392.1410471465792,167.8687421290655
-898.9083937940072,-404.206329378534,156.82113667766262
-894.8917316310872,-419.64279341059387,164.78308086859428
-903.1167626049672,-415.8514885307419,148.94790779726003
-929.4091254403901,-434.7815003084642,172.1658262505545
-933.9703160610403,-477.4107365920065,160.4676418552717
-926.6711874085444,-516.19156388777,156.78340717778244
-900.1606053035441,-543.549530165755,149.42309555250776
-877.4759984296371,-567.0081016453122,141.99344322475056
-877.3383367408851,-586.283797219234,149.90950018609823
-858.3165505039949,-582.63219346056,142.3330087236722
-863.4243090148012,-606.0887255076913,110.93798595850777
-865.2597981981617,-590.1046738692622,165.80177736535924
-892.8349640295107,-559.1522079405303,141.73647473908014
-887.2642543580123,-527.8560976480246,184.88474657502817
-863.8158800405848,-520.2286203749497,193.05981145447225
-844.5483421963669,-539.6868451509945,197.33854068412762
-815.0295972630818,-551.8388032610525,162.4999362677367
-823.7175793976537,-594.5057690444751,142.89079349217116
-847.3831532684455,-633.083672813856,134.81770023402487
-817.4004374582554,-637.3950329623266,111.73336460463055
-806.9024590456477,-672.5079410400086,88.46129922042697
-775.4197406861671,-695.7533918310535,112.55933473714268
-756.1797351796996,-699.7710737101866,112.86117073618412
-745.0566707285363,-665.2128912523646,93.2877180280728
-748.2290078671107,-665.0120071584079,112.86219045239712
-772.466642533383,-688.2849902872032,85.10571907838049
-791.6250707428123,-672.6619181881683,84.76605160783755
-811.9826852187038,-692.0956697751017,57.05424380394937
-771.0675918891773,-708.2398168589682,18.475422289976702
-741.4662499426411,-728.0957309580745,-12.411169971396962
-733.7602545211669,-708.8455282894771,-16.285275807742707
-748.9550458107509,-716.3955071303657,-8.638199589054368
-782.6821595549959,-696.5783422473527,14.337515869333567
-794.5710308821057,-665.6768621292695,-1.6433338601867102
-794.0540347621259,-592.1706189167555,-1.8835688028021802
-767.3537854415117,-534.5189233836223,-21.301259859381137
-732.7833663891339,-473.0239174437754,-36.68928737132456
-697.6663794466001,-411.39226953138945,-36.37123788449675
-680.3730121907074,-337.6637281844463,2.885307418945308
-686.6626217923553,-290.90566095455637,34.03027537436332
-732.6610004435767,-197.8025115610326,21.253333197371173
-767.2344786445933,-104.82172811306614,4.723315301351634
-800.418083647321,-7.630587407524486,27.446069758786134
-826.9031728469968,81.52416982353813,22.824002080221078
-867.1095634085035,101.70812662835934,81.02297930485948
-855.632657431437,147.94042817883786,69.26503953949617
-861.4226060887256,162.93229594203936,10.258447074179257
-882.5297119811557,372.1586882370637,24.934916612706687
-951.5298292485203,533.1157938745648,223.5136361550581
-944.1848133664403,487.6191156001285,333.66644062957283
-864.7958273212566,410.3684744535596,417.53402028215555
-820.9245766903073,266.5262857346801,379.4302845518093
-792.0839430386525,119.03759183819145,352.88707152799384
-800.0642421214177,157.64710681017473,336.938709957019
-829.3688466499775,316.6055686702391,347.7375046524553
-854.9514870011676,282.4053066031724,394.56491258482765
-897.8254551758247,77.9301800308974,422.085013740676
-992.2287427408953,-297.437963014893,331.670856000775
-1159.254179561828,-587.1291419597926,239.88008137335382
-1255.2400666894405,-550.5458031029965,352.1324815303901
-1230.909637847787,-333.15658252308384,453.8043062615675
-1161.3751892848222,-161.7331096755773,646.573498595341
-1088.057593571709,-6.8010584654290716,729.5661617371886
-987.2729219458225,154.77456623821593,714.8322821758705
-993.4371064532743,226.60439599659418,522.1915740849322
-1202.2454151009774,118.89993014943943,409.5374057399826
-1436.8209327344202,16.56712536900981,441.69109736760265
-1373.2824155037654,-45.227065307724864,509.5695268006914
-1248.9484176553665,-43.058536809206004,429.0078671105832
-1144.886378120969,56.55376708661979,410.6070880473964
-1076.6775606348754,130.100493032789,474.17517704822757
-1064.267614322934,192.0135826199569,485.9253669703722
-1045.606807625438,222.60914787414666,462.5544910851311
-1022.8365445896408,191.44662040554115,459.07623908266334
-930.1545379920769,116.4108028735603,370.4506635803256
-872.815895336328,127.43393513585171,355.57402374919064
-891.0474015081603,158.73718344184815,378.74299582426215
-870.9906033150975,212.8535228645868,390.63492630001076
-809.1437952817731,181.52988023433082,403.44052250258756
-796.0567574044145,224.30493593632895,438.81447793079195
-924.9764190625749,291.4950569256576,483.75235172051623
-980.097178955097,280.0324269755727,451.56806860650687
-889.2496418246803,220.9796413658079,417.8062845110206
-825.1033737310908,181.51254505871017,387.50337780995557
-792.0676275792448,224.30901480118087,442.79850917489665
-823.7950778298401,251.35494791799445,410.8355044791035
-834.4296982149868,286.4331856444352,430.1805407555078
-824.86679956968,240.4970096822055,493.27242228487813
-840.6356910871705,228.94056584052663,485.22584164826935
-891.7663014383099,236.7913609642437,453.0364599531951
-887.8597686263913,283.11808823604395,445.0898115054581
-864.6296135785412,279.10550493797575,449.3756787486043
-829.0486557591024,290.64869246888594,473.41752790198495
-830.7485226861365,287.3570485333932,536.1973762701841
-853.7064135051216,349.367011160794,527.794914675246
-907.3822355238538,330.54203015300845,538.8282440996671
-910.8798621343681,303.627640427669,554.5655244145555
-899.8098229262798,253.2108314256143,550.9761233448731
-858.4032263820981,229.46571969021025,528.1293815931027
-818.941228656065,244.84813876298227,552.2160982598543
-810.3633758724948,310.6596034323648,563.8959277633036
-814.1628384820506,337.73612803556773,559.8231812086697
-826.2954219840619,333.8204177777325,543.9563969347331
-833.9749047839987,299.1296722122234,551.8082117746632
-792.240979335451,283.19048808716536,536.7877919574984
-744.5814829732886,310.2221451769973,572.7327884649703
-725.3159845614966,368.00232495296564,561.0519392453081
-731.9604554052607,422.39500746942133,580.3918769406475
-714.7741583517309,442.02964315031136,627.6791768850729
-720.0175391188633,418.5394604681518,592.3582466999435
-734.6943145722546,387.9479740788139,619.7141735455024
-713.4536258559244,313.9216755976812,581.0353178710366
-694.5134169160724,305.96686942024036,573.4965559084908
-721.324815303901,329.3877113999174,573.0162695721781
-692.9053244482061,341.12770415993236,612.6485599057783
-629.7522599460572,418.26515680686066,640.8070034109508
-633.9341161354796,468.41785930975414,620.9521090280575
-633.8239867844779,445.27336042379414,628.880402583961
-596.3249427684276,394.51188734175287,609.9901597385448
-560.3350787475846,406.15806621017373,645.8117705842465
-600.5424890253043,464.96102134775896,696.0307546409836
-684.4192461238038,496.7363982603642,714.2908128667793
-707.1038529977108,481.5762773220213,729.7007642773017
-648.9463782229407,434.87633391627116,750.3520570225307
-637.7121647045628,407.672344786446,746.688216669301
-648.3192527519592,427.3100396159749,770.0101461763192
-681.9913018207034,454.8637914068515,792.9608989818134
-685.3002809318168,474.34037107473,804.6193144447901
-637.5765424482368,427.0153416304243,746.6249942640964
-527.4604477573891,348.50433124461466,717.1419393982655
-372.87656845100014,307.81051633330446,629.3280580014582
-246.9599710400596,336.4145758235484,478.0582563872475
-124.44310748318743,493.60179062167003,424.4181244359695
-25.685019858973252,759.9363697083103,440.6968740599492
-65.08614052709132,978.2759657987183,592.4306465510649
-156.26233219295074,1087.4559610060521,606.3956600877976
-231.03098407713134,1002.6645184645114,578.0893577317433
-256.32810388868785,751.2738804790628,566.783764078457
-259.7971784452387,612.3711970958483,606.4466458984465
-313.2272488566432,609.056099687457,621.3559166483968
-391.8055605125094,672.0592659062984,674.9114121539976
-488.4236716921681,696.9005725706536,771.4958726986281
-543.9604757995851,612.9534550534587,853.3648085737741
-495.4168854807708,469.2866575232113,838.8777003359966
-461.03511392779393,445.77302136815337,835.5473071844107
-445.6221033686325,503.581753198085,823.8093538568219
-418.29574829325,592.2858468488221,816.0697078003193
-375.77256249585747,649.9212269225475,808.6635089454605
-351.1708891415519,660.7026864423632,738.3520366282064
-323.56105295896157,648.0724814284185,648.5425706026014
-296.5579479230931,593.8042042899461,660.9035705363199
-274.9093727215716,558.4995895642244,626.0251971876228
-262.9409635298497,597.1315382928932,629.9990312695978
-332.8312930511439,683.4933438024199,707.1527993759338
-402.93882212580246,719.5953766066905,788.3986886449502
-430.15708728260927,627.0571499951565,800.0764787159734
-416.21348778634916,533.8826204667241,777.0523063431448
-372.9989343965575,509.5950197060159,695.3648799539089
-369.7185073394075,544.1786950691624,671.749272177553
-377.0176359919035,582.9595223649259,675.4335068550423
-387.86945593041463,606.3987192364366,690.8903652113618
-366.4472577281743,602.9276052474597,754.0169170919734
-378.19846736653193,575.9367368061469,753.9322806462962
-374.09818847414766,552.7973365012518,765.8456251625173
-360.6205992872184,548.3299597721955,711.117456011992
-309.9162303131039,493.03278897482835,629.6462094599074
-237.62854797509857,515.4063824037771,599.2566268807391
-261.57760295309816,597.4741629404537,669.2642237665259
-321.59707953276603,636.9789887474317,707.4780888478738
-326.4692835983746,672.5069213237957,781.853130273845
-334.17527901984886,653.2567186551983,785.728051883161
-318.46043246164595,618.4568634549006,801.7783850754336
-319.9053703354357,587.1984826622752,766.5410716197683
-289.4597033645537,590.7267007591788,755.2110047773705
-252.1523659965432,609.43033553762,716.4607689679963
-221.89738595748807,605.1872963754188,701.2302876109579
-222.22471486185395,616.6907149740229,689.4127964187568
-249.25331280304692,589.8517842484437,693.0225918126987
-260.26828733563457,590.0781612477249,708.5549091687784
-298.55761141674276,586.5754360561457,715.8428209429317
-297.8489086487231,609.9248979009143,731.4730310554573
-297.9580182835117,633.0683770706613,723.544737499554
-243.84575772562496,617.2454405938828,732.2571928232375
-239.1469054162227,621.2896350945532,755.8615837212504
-230.24070401207348,656.2883349563817,783.3490539582835
-241.28321088241145,652.6459086436246,798.894627625132
-241.61053978677737,664.1493272422287,787.0771364329308
-238.8746411873576,621.3579560808228,763.7154379936064
-228.8671462731922,574.5366664457283,728.7014423885834
-198.01359281711902,616.7855485818297,721.1718578719543
-190.2800650578944,639.9045545624654,717.2846996680825
-169.59512167763714,667.1442337597447,752.8248688390022
-172.41157785788218,659.7105025671357,784.204595860972
-191.21514482519518,629.0802669617046,803.6485446100352
-202.11999000678114,567.5434526571255,835.0904743209965
-217.88684209184586,498.0599899048095,839.0133225923227
-212.9962831344037,490.56609545563475,870.5082775463591
-200.09177445916802,501.40363936716415,796.0975460529336
-184.37896733339116,524.5308030775036,800.1794700534842
-212.11728775881673,570.8911809843321,768.2103470604131
-241.52692305731318,579.2079864173801,806.9881152075378
-220.53402538073658,605.5289013067663,740.495480107886
-178.47481046024893,693.9433955530177,713.3547133832654
-151.06483865540224,697.7061483789062,725.5260461013701
-135.9771175681808,651.1622215537417,725.9094593974497
-116.49238017059855,662.654423274003,730.0872367220203
-92.41626855246187,643.4052403216186,761.9095205804225
-84.62777808935773,654.9525067173806,761.9870190126089
-84.81846502118461,647.1802297420628,758.0866044979683
-107.03961087629315,639.8607067653073,785.2508246954874
-57.24411496280586,635.5371100222809,778.1617575828648
-19.091738769100562,658.3155307877819,762.9577888473639
-132.34488841755342,793.9673588840227,690.1602484028696
-93.07000861660201,608.4840388919765,750.243967103955
-20.019884466153073,700.5633932076704,727.4798223654358
31.76528172209674,727.6337995135955,771.3347575369776
105.00731646382813,788.864698954281,760.4513263958642
155.45675638469817,761.5342650140467,776.998261383857
197.05403986070678,784.1801226718605,750.0726547801747
287.3825414387176,767.478190819495,692.6126658950815
276.9416671340366,713.7809547602902,735.8078446768266
206.92591251854614,660.0857581335115,727.0913104882911
114.14397373211037,637.5541086915513,721.8530283022236
55.68823196504414,583.7691770380304,713.3098458698945
9.010487781250479,580.1553027792366,700.8489137473042
-52.18224368158342,627.0897809139717,703.6980008463646
-125.18036230517049,677.9144764012176,698.5086650385199
-155.92684555888098,709.0688461401193,694.0188545527781
-133.29832307668778,735.7996869471227,674.6442465061974
-36.93473306378835,758.2344633488501,672.0867982440487
-6.380170598522432,777.2368749776938,660.7067653072152
70.44352556683475,780.4428627512964,653.9980523420332
113.32208246445016,791.823915404343,666.3753677351593
98.26301540281341,784.3075871984828,677.9491467524589
55.8749420036404,784.6349161028486,677.3128438355607
-39.8337862572846,758.5036684290764,699.515124940729
-66.50762492798256,743.3394686258815,710.9410451071467
-47.78532934284389,723.7446018772976,699.5130855083032
35.38211315790816,707.2384555378239,657.6435378034294
112.09740329266366,694.9692300632735,650.9847909326835
164.92788057083717,690.4100788750491,620.3953439757715
177.25013128846243,740.7167585261024,632.1832633977965
158.52814161818768,760.3116252746861,643.6112229966401
135.16236431401143,725.6718655198259,643.3777079838682
66.12778063864826,714.7037979330353,654.1550886388319
4.772751143356804,699.8077834938538,665.0599338204179
-33.10763614486089,715.7173958487354,680.1374577455096
-6.8423977607031965,711.4692581054693,660.9219254281534
50.659195545879584,726.3948443148273,649.9589564224277
77.33354407468403,722.249697909072,642.5231857973927
100.91733670519496,749.2201720261252,650.6350282716321
116.74017121035217,768.5132027756675,658.6561160029164
109.52363957110738,780.2817475896459,670.2819005470778
113.54030173402744,784.1546297665361,674.2536951966268
86.81180627431387,780.5631892644278,681.7149587269864
83.06751031188021,776.7576083575942,685.5959986335804
41.36162705918943,757.9469033767904,708.5824415065289
17.204855888606204,746.2803301841099,680.7880366893894
16.578240275731265,715.2279320665059,669.1092269021532
21.549662728862558,719.340447553446,700.5664523563094
20.541265365848687,692.0538614103696,677.0956442821963
55.24955005022103,695.6544793583947,677.6034629562594
74.21698541295959,691.5684764929921,670.0524643991578
67.43730019935452,687.9994697475694,697.4349038662541
74.08064935528444,691.5348258579638,666.1255372629798
82.16944624311056,687.7088506268706,678.033783198136
94.00253909337032,687.688456302611,686.0599695104853
99.68246037127868,715.1494139181067,733.1484247933801
91.92078844457589,726.7813167595459,729.0685402252554
88.47639102037904,726.913879867233,740.7901780934367
92.16633610866097,722.9808344337772,736.9336113759541
73.06297257473246,707.7228207389884,744.5488520544733
73.19930863240761,707.7574910902297,748.4747594744383
57.922226244436175,688.6011023132263,756.160360571653
60.275833235610534,688.1952552604612,713.0253450464737
40.89979758633173,672.8689205794028,712.7877511688498
44.644501435250575,657.3641355610735,712.8958410874254
48.11643119719783,641.7910295564745,705.1510964498581
48.00772944889438,626.3168360245345,705.201062544294
51.152228334854414,622.2471486185395,685.6388267145254
55.93255596967364,637.8977530553248,709.2054881126584
36.801558126373436,638.0802822574478,712.8428158443505
25.94973818786232,661.5184594127455,728.29967420067
34.14774668209837,653.8583512208553,744.14708386656
15.071201684571188,661.7795067632678,747.7589186929279
15.725757521681718,658.0809960587969,767.4047712521606
13.044617682898853,669.991281426379,798.7212758689258
-13.711206171322523,662.5300178960197,806.194775993841
-28.307016157403396,662.8542876517466,829.5228237981371
-43.692800293678275,628.2237053428032,837.2583909897876
-55.44431584689981,639.8505096031776,829.1944751775582
-39.34870725477101,639.9025151300393,849.0585470063683
-47.30116808492197,643.7621409961608,841.07722820739
-47.464730565483634,639.8596870490943,837.1625376657677
-59.816043195178786,643.6122427128531,813.4174259303636
-63.80619273656142,662.9175100569513,805.4432451448763
-67.00514446829449,659.2495908388696,825.0309738799693
-82.41937868691144,678.6772241285252,820.8093487582407
-74.60366180092082,694.0932938363254,820.8746105958712
-47.766260649661206,713.1599475865868,813.3633809710759
-6.087114356074705,708.7925030464022,794.3793242340657
14.571336796969405,693.5457062299563,837.9110093660936
6.01988446615307,650.9123910815621,822.227774010493
5.584435051725105,608.321904014113,818.440547995493
2.1132394854511993,585.2763176008118,834.1645719996127
-1.930944818057135,577.5346321118834,830.2060336608324
9.493078676204414,577.411246450113,826.4524582808606
23.92529559023724,573.1835030311065,799.2107396511552
39.393880683005925,561.4924566493146,803.4068718675594
10.920242896401934,542.0148572652231,763.8000744392835
-4.111760896942381,538.3683520876141,775.3605971458145
-33.95777355162058,542.714382587326,802.3708401951737
-19.197687283628966,507.67387436076547,790.9367622990522
-15.42585898344491,496.0378926544743,791.0326156230723
0.31589380675358053,465.1068407662148,807.070712220789
-19.878245884170436,449.57452341013504,783.2735949585231
-12.771129794578169,441.6411312731667,767.7076269674151
-23.75847001779405,426.42696537553604,787.2178572703218
-12.498049792742682,422.4001060504862,779.5506110649408
7.778507441379066,410.91912120856773,811.2902979100917
49.839445682266636,402.78586469385573,804.0982394599583
89.9011385131518,406.7331861542933,847.8563015912672
131.71674323035901,383.09106575640004,836.7883018156048
174.0502618121377,394.33547643690764,833.4599480964449
216.0564514895505,397.7739595070692,822.3032330102534
242.3763466627238,401.2634283878797,803.0632275037858
269.45898956320457,397.2212733196352,807.4072185710718
296.13374597849423,373.76576098871686,803.9615974874193
320.0450714566137,389.23383622337906,823.8899114376469
320.07260379436406,393.1026395354173,823.8776748430913
303.0423233214197,362.91700019884473,894.3675974976164
246.44093548765383,340.4924209592471,932.8414902132737
183.16856418858634,310.6647020134297,1002.638005842974
95.03092289415856,265.1292745229003,1025.0187372854136
29.713612701585152,234.78863832195503,1035.9195036021476
24.414657400845346,242.17954143361902,992.6417278071513
15.016748838798165,253.40049864122818,941.4427964697426
22.996028205350452,272.71902229609503,945.4217291327825
22.77729907766669,299.6966344266391,933.5532521299324
22.367781046534752,318.9040090142914,917.7843606124416
19.05931179352786,338.3795689659568,929.4427760754184
19.9585995217531,369.5002880698302,948.9744204187975
-6.688502189840569,377.5152575038367,956.3969347330639
-9.478741466249945,393.25865611600295,983.7742756190953
-11.696348906099434,413.00851972895947,1026.8440293066442
-29.737372089347538,452.0840450102737,1053.917494761208
-45.86051301922676,467.4725823803236,1030.076529701784
-61.030015346729016,521.7194454783235,1025.742735796628
-61.93052673440982,548.5267650013002,994.2386033966748
-48.53512667424656,571.0726904702423,931.5699040956902
-27.568843590828674,574.2154558386402,869.0796551319769
-4.802353505019553,562.3632942951978,861.6112535881265
9.848154058725457,550.4662652383842,842.2478624198886
5.258962030866811,523.2785915679667,826.571765077779
24.33552742271826,515.3584557417671,822.9599302514112
20.373318105571222,499.91281426379044,822.9527922379203
12.366914287753719,476.7254872968854,818.9860961694362
4.714362193001688,484.52325717752757,818.8453753320451
12.366506401268529,496.0348335058354,814.9969663442665
17.365155277286334,504.0161523048136,846.440935487654
13.157398296054211,492.3720128688187,838.5687263234643
17.365155277286334,504.0161523048136,846.440935487654
13.675210189004403,507.9491977382695,850.2975022051365
9.68541754829631,507.9451188734175,846.3134709610316
6.513712633774021,508.1460029673742,865.8879433853559
29.906746952323175,527.3452198253227,870.0983516287419
25.753442816864066,523.4376672971912,862.1996298430148
25.88977887453922,523.4713179322194,866.1265569791929
3.31441419852855,523.7874299582427,881.4855225790664
-8.7637776406826,508.2989603993209,869.5833949411879
-1.6022596911279592,508.1021551702162,853.9929537609685
-9.145640968118574,512.0647723738484,857.7913966543113
-20.65119077360771,500.582767815717,861.5816818179502
-9.690638495306757,492.6187841923593,846.0748573671948
-1.7929976087654806,500.33089791111144,850.091519530115
-1.7658017773653596,504.1997012231497,850.0792829355591
13.729561063156126,515.686804362346,850.2720092998119
13.238975593092444,503.9784228049334,838.530996823584
13.811546246679551,507.9838680895108,854.2244293413144
-8.845344740558705,496.69255046320615,869.6211244410681
10.121662341370397,511.9158938067536,858.0799763425839
-9.527096409069356,496.52123813942586,849.9885281926041
2.496713964503679,504.27210107427106,861.9161487358069
14.220656391326296,508.0858397108085,866.0041910336354
17.283985866733293,473.1014158759618,850.4688145289166
48.52034078915838,492.27513982858574,858.721377840547
52.182651568068614,503.78263729204167,850.8889376086636
45.43060066383526,484.77206793349416,882.2482703063738
25.345148445187707,484.7159835417804,858.400167233459
29.007867110583128,476.9151545124992,854.5568568267453
25.809017350471365,473.24723529441764,874.1445855618383
7.196269878092928,469.69760315704144,893.5008387165852
17.747446885531758,480.94099412133613,862.2230833159133
7.0871092574936405,473.53275583405144,889.5616749858516
10.42231546960481,477.2343256871613,873.8998536707235
14.330173912600124,484.9423605410615,873.9324845895388
25.481484502862855,484.7506538930216,862.327094369637
29.089444407621365,488.52054473240105,854.5181076106521
28.980742659317915,473.046351200461,854.5690934213009
48.24797458867198,472.89747263336625,854.8586928257868
48.41153706923364,476.7999265804327,858.772363651196
52.837615291664335,480.7758000948337,874.5239199930661
56.854583369448285,484.64868227172377,878.4957146426151
45.86683525974721,488.74386258304315,894.0157954041392
53.76484324412516,477.14663009284527,902.0215873922289
41.49551579795344,473.19624948376867,882.2288956983272
33.29801716182387,461.54701146670885,870.3716355738198
18.34754987686927,469.5058965090016,881.8944287804704
6.378161757582866,469.49264019823283,869.9413153319432
2.770212049986489,465.7217296426405,877.7492823747152
-5.31856444351537,469.54770487373366,865.8410364395589
-2.174055360393203,465.47801746773877,846.2788006097904
17.39268761503674,488.5756094079018,850.4188484344808
21.354998903805072,504.0212508858785,850.4259864479716
17.01049797841261,511.6517873075924,834.6367006062214
25.426317855740752,515.6317396868452,854.3722881921962
25.262347488693898,531.0386319487287,846.4684678254042
13.538466244844061,527.2248933121913,842.3814452437887
6.02268868573876,515.7459479026987,850.1567813677455
13.674802302519211,527.2585439472196,846.3073526637538
25.31680033446692,538.7752188565922,846.4429749200798
25.398377631505156,550.381628792707,846.4052454201997
36.44047661535795,554.0240551054642,830.8596717533511
51.745193312701076,557.7399009855558,827.1519836029634
32.31429693116406,553.985305889371,822.9487133730685
39.77576440476616,557.726644674787,815.1988701544361
20.481306052525586,554.0067199298436,814.9225270607192
-10.182865708473333,558.147787470747,818.3742664416494
5.476477696257132,554.2279983480598,826.4708131726942
13.046657115324807,573.4435306654159,818.6699841434129
5.993891899884263,589.1155491426737,834.2104592291965
17.55431263479374,589.0258141159316,834.3838109854029
13.728031488836658,592.9241891981462,834.3134505667074
36.90312186118604,600.4833454849515,834.6346611737954
36.685208506472655,588.8432849138086,830.7464832537105
51.60844936854073,577.0155965594776,819.2359266416158
51.554098494389024,569.277989935401,819.2614195469401
55.435138400983014,553.8068555520999,823.2964366016938
47.70099881203062,549.9982154966274,823.1934452641831
67.07744234779462,546.0152039687356,827.4211886831895
64.12403828014665,538.5468024248852,854.8750082851943
58.934702472301964,522.7932066505892,819.5285851947405
48.11041487154126,530.7908409089752,838.9623367816738
44.0934467937573,526.9179587320849,834.9905421321247
48.41031340977807,534.7279652072829,846.8029347432611
52.18224368158342,523.0919835009918,846.898788067281
52.34580616214509,526.9954571642712,850.8124588926902
32.996894964131485,515.5379257952512,850.5616087042978
25.453544278627263,519.5005429988835,854.3600515976406
5.85914659950136,511.8434939556322,846.2431105423361
17.092075275450842,523.2571775274942,834.5989711063413
36.44088450184314,534.7147088965141,834.8498212947337
20.8363712378845,527.0627584343279,830.7169114835342
43.41125664727507,546.0559926172547,811.3677963422781
43.22056971544819,538.2847353581499,807.4673818276375
19.799931679013735,534.5260613971133,799.2800803536377
8.212335507028394,530.7469931118171,799.1189651919872
31.251140807513274,538.2714790473811,795.5142683791101
54.83452555153901,584.5512993733845,799.635961311967
63.413907909428815,592.4347254159168,823.2852197233511
31.686151743969656,600.1713123237804,795.3113448527275
4.057389628466399,604.0768254194858,775.2616846731555
24.71537171205254,608.1393748119899,814.8032202638008
29.08709906033151,604.3776417023143,830.5802695109952
9.356722224205004,577.3765760988717,822.5265508608954
9.438697210566302,569.6736398260365,826.4779511861849
4.903081072537514,588.8412454813827,802.7981012884115
20.207308306098415,611.8664375704242,795.1002635966412
28.26857285617413,623.4810052362428,803.0305965849706
24.49623469788358,654.427352867697,798.945613435781
44.063467137095756,658.21559859891,807.074791085641
32.148796989797745,646.6295829870547,799.0863342731718
39.5289930812255,619.4551656274059,795.3643700958024
49.889819663187744,603.6169334074327,764.1753300056595
46.66374348018947,596.080210877313,783.7763150515212
62.7861706087196,619.3103659251631,799.6369810281799
32.039993269873,631.1553894551147,799.1373200838208
51.19852345092362,615.5312976398669,799.4768855827424
43.16458729535571,607.7845135698735,791.5332962836444
47.3182993173,592.3827198890549,803.421147894541
39.3118954994825,569.1964126383627,799.4544518260569
35.84027165239914,565.4591527177987,811.1893460050069
51.03587871495364,573.0091315586873,803.5424941238855
28.2697965156297,565.5529666093927,815.0000254929055
28.97870322689196,569.5930822452112,834.6203851468138
32.47785941172572,557.8887795526506,826.8634039146907
27.969897977392897,561.615842311085,807.1594275313182
36.03106055584731,573.2314296931165,815.0907802358605
51.935064471557574,604.1308703787737,823.0741384672647
39.747314322424074,611.785879989599,803.2426975572698
28.160177022734576,588.6974654953527,807.071731937002
20.09860655779497,596.3912243222712,795.1502296910771
24.224786241988856,596.4299735383644,803.0611880713598
28.623230155047853,615.8463899496771,814.8358511826159
20.097790784824586,635.0099167401712,787.1709503245247
35.62123660985148,611.7471307735058,795.3317391769872
31.604166560446235,607.8742485966156,791.3599445274381
31.440604079884572,603.9717946495491,787.4462737020287
31.712970280370975,623.3494618447686,791.3089587167892
20.507614730820418,596.494215659782,806.9299913833981
32.25872239755677,604.1767576083577,811.0047773704579
35.6759953704884,600.1753911886324,799.2963958130454
32.23159794629155,600.3079542963194,811.0180336812266
28.405724686819664,584.8969831695839,814.9368030877007
32.23200583277674,580.9986080873693,815.0071635063963
43.27451270311472,565.3316881911765,803.4517393809305
51.253792069667014,584.6502118460434,807.4306720439703
43.110950222553065,561.4292342441099,799.5380685555211
43.7379737219132,573.1712664365508,815.2060081679269
54.480684025635675,553.5682419582631,795.8099860808737
36.35849143183452,561.7280110945125,826.9082714280617
48.109599098570875,569.4095333268751,830.9830574151215
36.412944277607544,569.465617718589,826.8827785227372
32.368341890451894,581.0322587223976,818.9340906425743
32.23200583277674,580.9986080873693,815.0071635063963
16.65461702008331,577.2144412210083,810.862017100641
16.409069355998227,581.0149235467769,802.9969459499423
28.07819183921115,596.400401768188,803.1193118954995
36.685208506472655,588.8432849138086,830.7464832537105
39.256728852360396,600.0774984321864,791.500665364829
35.53965931281324,600.141740553604,795.3694686768673
43.81873524598105,623.3963687905657,807.1889993014945
31.849714224531315,604.0737662708469,799.2250156781369
31.767729041007893,611.7767025436822,795.2736153528474
47.236314133776574,600.0866758781032,799.4697475692516
27.723534540337425,604.0350170547538,791.3140572978541
32.040809042843385,592.5366970372147,807.1165994503731
36.221339601188994,600.3120331611714,815.0020649253314
31.38666109221804,576.9248418165225,791.460896432523
32.586255245165276,592.6733390097537,822.822268562659
35.730754131125316,588.6036516037587,803.2600327328905
31.79577123686478,577.0268134378202,803.240658124844
47.154736836738344,588.4802659419884,799.5074770691317
27.805927610346046,577.0227345729685,799.2566268807392
24.470231934452645,592.6294912125956,810.9272789382716
39.31148761299731,588.5057588473129,795.4653220008872
43.7099315260563,607.9221752586257,807.2389653959304
47.48186179786166,596.2861935523345,807.3348187199504
36.00342624647561,588.6719725900283,811.1138870052466
35.32174595809986,588.5006602662479,791.4812907567825
31.577449995666214,584.6960990756273,795.3623306633765
51.22615776029532,600.0907547429551,803.4537788133564
31.52299714989319,576.9584924515508,795.3878235687009
44.47369896957677,600.3895315933577,830.823981685897
40.32039483411767,596.4819790652263,822.9252599001699
35.730754131125316,588.6036516037587,803.2600327328905
35.86709018880046,588.637302238787,807.1869598690686
20.26257692484182,580.9853517766006,803.0540500578691
27.94226366802119,577.0563852079968,803.1825343007042
27.723942426822617,584.7256708458037,795.3042068392367
32.204371523405044,596.4391509842811,811.0302702757824
31.331902331581126,588.496581401396,787.4962397964647
31.931699408054744,596.3708299980116,803.1774357196393
27.86027848449777,584.7603411970449,799.2311339754148
48.000081577297045,592.5540322128353,823.0537441430051
27.914629358649492,592.4979478211214,799.2056410700903
39.93851111235743,600.2488107559667,811.1332616132931
27.86027848449777,584.7603411970449,799.2311339754148
40.074847170032584,600.282461390995,815.0601887494711
35.7035277082388,584.7348482917205,803.2732890436592
32.449919187490124,592.6386686585124,818.8963611426941
43.301331239516045,588.5098377121648,799.449353244992
31.850122111016507,584.7644200618969,803.2151652195195
32.42269276460362,588.7698653464741,818.9085977372498
27.969490090907705,580.9251885200349,803.1702977061485
31.98645816869166,584.7990904131381,807.1420923556975
32.09556780348029,580.9639377361281,811.0812560864313
31.79577123686478,577.0268134378202,803.240658124844
40.59347483595316,577.2409538425457,834.7682439976955
28.405724686819664,584.8969831695839,814.9368030877007
29.00552176329328,592.7712317661995,830.6179990108755
36.65798208358614,584.9744816017703,830.7587198482663
31.795363350379596,596.3361596467704,799.2505085834614
20.371278673145266,596.4595453085407,803.0040839634331
24.25191069325407,600.2987768504026,803.0489514768041
32.34070758108019,596.4738213355224,814.9571974119604
32.31358312981498,592.6050180234841,814.969434006516
24.551809231490882,604.2359011487104,810.8895494383914
43.655580651904586,600.184568634549,807.2644583012548
28.160177022734576,588.6974654953527,807.071731937002
32.23159794629155,600.3079542963194,811.0180336812266
24.006872887275474,584.7899129672213,799.173010151275
35.9486674858387,600.2437121749018,807.1492303691883
32.80457648636385,585.0040533719466,830.7005960241266
35.78551289176223,577.0319120188852,807.2246893689487
23.516185445590494,573.0815314098087,787.4309779588341
28.160177022734576,588.6974654953527,807.071731937002
32.25913028404196,584.8674113994076,814.9949269118406
39.72059775764405,588.6077304686106,807.2450836932082
35.540067199298434,580.831374628441,799.3596182182499
24.57944354086258,588.7953582517986,814.8664426690053
21.326140934977797,577.3898324096405,834.4796643094228
27.833154033232557,580.8915378850066,799.2433705699705
28.07819183921115,596.400401768188,803.1193118954995
27.86027848449777,584.7603411970449,799.2311339754148
19.689496413148223,596.2892527009734,783.371487714969
27.614832792033983,588.5608235228137,791.3650431085031
31.74091050460657,588.5995727389069,799.2760014887857
47.5910734042716,592.4510408753245,811.273982450684
32.09556780348029,580.9639377361281,811.0812560864313
47.75494179969715,577.045168329654,819.177802817476
24.443515369672625,569.4513416916074,814.9296650742099
28.160584909219768,569.3881192864026,811.0608617621716
32.095975689965485,561.654591527178,815.0703859116009
55.62582533280988,561.5791325274176,827.1968511163345
35.703935594723994,565.4255020827704,807.262418868829
43.16540306832609,569.1658211519735,799.5125756501966
20.39932086900216,561.7096562026788,810.9711267354296
12.692407702936274,561.7698194592446,810.8548790871502
21.21703130018916,581.2249850866505,830.5405005786889
21.626039473214608,581.3269567079483,842.32026227101
40.865739064818264,596.6186210377653,838.631948728669
17.172428913033503,592.7916260904591,822.591812698526
28.732339789836495,612.01225698888,818.7750149133497
16.681333584863335,600.3925907419965,806.8596309647025
25.04290455966105,596.6359562133858,826.6207114560019
27.805519723860854,596.3320807819184,795.2664773393565
35.103424716901294,596.169945904055,783.6019435791021
62.541438717604905,584.4921558330317,799.7511892440335
51.499237762130804,580.8497295202745,815.296762910882
51.281324407417415,569.2096689491316,811.4075652745842
51.363309590940844,561.5057129600833,815.3599853160866
40.53942987666533,550.1940010095191,838.7838864444026
48.27397735210292,534.6943145722546,842.8760076070831
51.2821401803878,530.5899568150185,819.3878643573495
39.830931051888264,526.8455588809635,823.153676331877
28.625269587473813,519.2996589049269,834.7845594571031
40.40350170547537,530.8510041655408,838.8471088496071
32.206003069345805,519.2017661484809,826.9898487250998
40.130829590125074,530.7826831792712,830.9932545772513
36.25019757001627,526.9434516374095,830.9483870638803
44.55649992607058,554.0679029026223,842.7556810939516
43.95629496311177,565.5030005149567,823.0843356293944
44.69242809726054,573.4108997466005,842.692458688747
29.197024468090532,561.9237966074041,842.4987126082813
28.678804688655152,565.6559579469034,826.7797871852264
40.7025844707418,573.4068208817487,838.7074077284292
24.115982522064115,580.9557800064243,803.1121738820087
35.94948325880908,561.6250197570016,815.1285097357406
23.92529559023724,573.1835030311065,799.2107396511552
16.95451555832012,581.1515655193161,818.7026150622282
35.75798055401182,592.472454915797,803.2477961383347
24.715779598537733,588.8300286030399,818.7933698051833
20.344154221880054,592.5917617127154,803.0163205579888
21.18898910433227,615.9748741925123,822.5734578066924
20.234942615470118,596.4258946735124,799.0771568272551
31.413479628619356,600.1029913375108,787.4585102965846
20.834739691943735,604.300143270128,814.7583527504297
16.681333584863335,600.3925907419965,806.8596309647025
32.176839185654636,611.8796938811929,807.0533770451684
27.723534540337425,604.0350170547538,791.3140572978541
23.488245221354898,607.8314205156706,779.4639351868376
31.277143570944208,600.0683209862697,783.5315831604065
28.023433078574236,607.9721413530616,799.1546552594415
16.845303951910186,584.985698480113,814.7634513314946
31.74050261812138,607.9089189478568,795.2858519474031
36.08500354351384,600.2783825261431,811.0751377891534
36.35808354534934,581.0373573034625,822.9181218866789
23.952420041502453,577.0523063431448,799.1985030565994
32.50427006164185,600.3762752825888,818.8708682373696
24.661428724386006,581.0924219789633,818.8188627105078
32.61378758291568,577.2327961128419,826.800181509486
24.55221711797607,584.9265549397604,814.878679263561
32.55902882227876,588.8045356977154,822.8355248734279
24.852115656212877,588.8636792380681,822.7192772251484
31.877348533903017,588.6332233739352,803.2029286249638
28.051475274431127,573.2222522471997,807.121698031438
32.06803546572989,596.4044806330398,807.1043628558174
24.170333396215835,588.6923669142878,803.0866809766843
35.894316611686975,592.5061055508253,807.1747232745128
35.94907537232389,580.9343659659518,811.138360194358
16.60016417431029,569.4768345969318,810.8875100059654
24.879749965584583,573.4231363411564,826.6971901719752
40.51148965242974,584.9449098315939,830.8168436724061
40.1572402400412,573.2701789092097,823.0017386161433
28.133358486333254,565.5193159743644,811.0741180729405
47.20959756899655,576.9085263571149,803.4721337051899
36.22215537415937,561.6933407432712,822.9813442918837
36.52205391239619,565.630465041579,830.8219422534709
36.0314684423325,553.9220834841665,819.0799100610301
40.1572402400412,573.2701789092097,823.0017386161433
43.52006036719981,561.5312058654077,811.3178302478422
28.433257024570064,569.4564402726721,818.9136963183147
39.74813009539445,573.1671875716988,811.2219769238222
47.48226968434685,576.9768473433844,811.324968261333
28.37849826393315,581.0281798575458,814.9500593984695
25.016086023259728,573.4567869761846,830.6230975919403
28.923944466255044,581.1648218300847,830.6557285107555
43.90153620247486,577.0747400998303,819.1196789933362
28.29692096689492,569.421769921431,814.9877888983497
28.487709870343085,577.1940468967487,818.8892231292032
28.432849138084872,588.7657864816222,814.924566493145
32.068443352215084,577.0951344240898,811.093492680987
31.768136927493085,592.4673563347321,799.26376489423
28.13295059984807,584.8286621833145,807.0839685315577
24.57944354086258,588.7953582517986,814.8664426690053
24.333895876777497,592.5958405775673,807.0003518020935
24.443107483187433,588.7617076167703,810.9395155328274
28.896718043368537,577.2960185180465,830.6689848215242
28.296513080409728,588.731116130381,810.997639356967
27.614832792033983,588.5608235228137,791.3650431085031
28.242162206258,580.9935095063045,811.0231322622915
31.768544813978274,573.1580101257821,803.2528947193997
24.41628894678611,565.583558095782,814.9419016687657
39.36624637363422,576.9329995462264,799.4299786369455
31.468646275741463,569.2208858274744,795.4122967578123
24.715779598537733,588.8300286030399,818.7933698051833
24.3615301861492,577.1552976806555,810.9782647489205
36.19462303640897,577.133883640183,819.0044510612697
35.458489902260204,569.2259844085391,799.3973477181302
20.944257213217565,581.1556443841679,822.687666022546
39.447823670672456,588.5394094823412,799.3912294208523
23.734098800303876,584.7215919809518,791.320175595132
27.833459948096447,561.5821916760567,803.2335201113532
32.50427006164185,600.3762752825888,818.8708682373696
35.45808201577501,588.5353306174892,795.4071981767474
21.135046116665734,588.9279213594857,826.5880805371866
28.73315556280688,573.39356457098,826.754294279902
36.08500354351384,600.2783825261431,811.0751377891534
40.45673089179282,596.5166494164674,826.8521870363479
36.13976230415076,588.7066429412696,815.0397944252117
28.787608408579896,581.1311711950565,826.7298210907906
36.03106055584731,573.2314296931165,815.0907802358605
47.67295661617372,584.7481046024892,815.2264024921866
28.133358486333254,565.5193159743644,811.0741180729405
40.102787394268184,565.5325722851331,823.0272315214677
43.710747299026686,569.3034828407255,815.2192644786957
40.18436469130641,577.1389822212478,822.9884823053745
28.02424885154462,569.3534489351614,807.1349543422066
39.693779221242735,565.4295809476224,811.2474698291467
36.085411429999034,580.969036317193,815.065287330536
32.449919187490124,592.6386686585124,818.8963611426941
24.797764782061158,581.1260726139916,822.7447701304727
28.5148343216083,581.0628502087869,818.8759668184346
16.27273329832308,580.9802531955357,799.0700188137642
32.01368459157816,588.6678937251763,807.1288360449288
35.894316611686975,592.5061055508253,807.1747232745128
35.89472449817217,573.1967593418752,811.1638530996825
28.65117037928345,581.0965008438153,822.8028939546125
17.09085161599527,581.1862358705573,822.6295421984063
36.13976230415076,588.7066429412696,815.0397944252117
31.768544813978274,573.1580101257821,803.2528947193997
43.68321496127628,584.7440257376372,811.2413515318688
39.938918998842624,580.9384448308036,815.1234111546758
32.50467794812704,581.0669290736389,822.8610177787522
54.86175197442552,588.4201026854228,799.6227050011983
43.81955101895144,584.7776763726655,815.1682786680468
23.78895953256209,573.1498523960782,795.2848322311902
31.68655963045485,580.8619661148304,799.3014943941103
20.42603743378218,584.8878057236672,806.9687405994913
8.539021990180133,557.8622669311131,802.9571770176361
55.67976832047641,588.6260853604442,823.1822283858404
29.223843004491854,585.1019461283926,838.4963264723428
44.092223134301726,584.845997358935,823.0211132241898
32.0952618886164,600.2732839450781,807.0911065450487
16.818179500644973,581.1179148842879,814.7756879260503
31.604574446931423,588.5649023876656,795.3490743526078
28.569287167381322,588.7994371166504,818.85047391311
36.27620033344721,588.7402935762979,818.9667215613895
32.50427006164185,600.3762752825888,818.8708682373696
31.768136927493085,592.4673563347321,799.26376489423
28.078599725696343,577.0910555592379,807.1094614368823
12.582788210041148,584.9132986289916,802.9265855312467
12.555255872290743,600.3538415259034,798.9486725844198
32.39516042685322,604.2104082433859,814.9317045066359
28.40531680033447,604.206329378534,810.9476732625311
28.187403445621086,592.566268807391,807.0584756262333
24.279137116140582,604.1675801624408,803.0367148822484
35.9211351480883,615.6842550718136,803.1723371385744
27.477986876252345,607.8354993805225,783.4489861471553
39.47464220707378,611.7175590033295,795.3888432849138
24.74300602142424,592.6988319150781,818.7801134944145
39.47505009355897,592.4082127943794,799.3789928262966
31.140807513269063,600.0346703512414,779.6056757404415
43.601229777752856,592.4469620104726,807.2899512065793
31.98645816869166,584.7990904131381,807.1420923556975
40.238817537079434,584.8755691291115,822.964009116263
24.71618748502292,569.5196626778768,822.782499630353
28.405724686819664,584.8969831695839,814.9368030877007
32.368341890451894,581.0322587223976,818.9340906425743
35.26729311232684,580.7630536421715,791.5057639458939
47.04603508843489,573.0050526938353,799.5574431635677
42.83787022071758,580.6702594667904,787.6950844579953
50.38091499135791,596.0169884721082,779.907511739483
51.03547082846845,592.3194974838503,799.5523445825028
31.90447298516823,592.5020266859733,803.189672314195
28.623638041533045,596.5370437407271,818.8260007239986
35.83955785105006,604.0788648519118,803.2100666384547
20.289701376107033,584.8541550886389,803.0418134633132
28.460075560971386,592.6345897936604,814.9113101823764
32.368341890451894,581.0322587223976,818.9340906425743
32.3954663417171,584.9010620344359,818.9218540480185
36.00342624647561,588.6719725900283,811.1138870052466
32.17755298700372,573.2610014632928,815.0326564117207
31.98645816869166,584.7990904131381,807.1420923556975
39.80258294116748,580.9047941957754,811.1964840184977
44.06540459790041,561.6678478379467,827.0234993601281
28.21493578337149,577.1257259104792,811.0353688568473
39.47545798004416,573.0988665854294,803.3691423676792
20.317335685478735,569.4136121917271,807.0187066939272
44.11944955718824,588.7148006709733,823.0088766296341
39.63942834709101,557.6919743235458,811.2719430182582
35.758388440497015,573.163108706847,807.2379456797174
28.242570092743193,561.6841632973544,815.0132818036741
16.81858738713016,561.8085686753377,818.765837467433
24.279952889110966,565.5488877445408,811.0159942488007
29.305828188015276,577.3990098555572,842.4477267976323
40.075255056517776,580.9731151820449,819.0493185746408
32.477451525240525,577.1981257616006,822.873254373308
32.368341890451894,581.0322587223976,818.9340906425743
32.72299918932561,573.3976434358318,830.7393452402198
36.22215537415937,561.6933407432712,822.9813442918837
40.26634987482984,569.4350262321997,826.9409023468769
43.92866065374007,580.9435434118686,819.1074423987806
28.65157826576864,561.7871546348651,826.7930434959951
43.65639642487496,561.565876216649,815.2437376678072
32.66864831517389,565.6600368117554,830.7638184293312
28.160584909219768,569.3881192864026,811.0608617621716
1.8957238200608775,554.3269108207187,834.2665436209104
36.5765067581692,573.3680716656555,830.7964493481466
17.363931617830758,561.9452106478767,834.4725262959319
13.72843937532185,573.6148429891962,838.3025803918771
32.477451525240525,577.1981257616006,822.873254373308
28.62445381450343,557.9183513228269,826.8052800905509
44.092223134301726,584.845997358935,823.0211132241898
28.65157826576864,561.7871546348651,826.7930434959951
32.20518729637543,557.820458566381,819.0095496423346
48.24644501435251,550.1348574691664,838.899114376469
47.70099881203062,549.9982154966274,823.1934452641831
40.40309381899018,550.1603503744908,834.8569593082248
32.31470481764925,534.675959680421,826.9388629144511
51.909163679747934,542.3330087236723,835.0558039697553
48.16486771731427,538.5284475330516,838.9368438763493
32.423916424059186,530.841826719624,830.8780266451847
25.61669887270373,542.7123431549,854.2835728816672
17.609479281915846,558.144728322108,842.3375974466308
17.555026436142825,550.4071216980315,842.3630903519551
32.72299918932561,573.3976434358318,830.7393452402198
36.46729515175927,577.2022046264525,826.8572856174128
20.835147578428927,584.9907970611779,818.7474825755994
12.828335874126232,581.1128163032229,810.7916566819455
16.24550687543657,577.1114498834975,799.08225540832
23.870128943115134,604.0645888249301,791.2569531899273
28.051067387945942,592.5315984561497,803.1325682062683
40.32039483411767,596.4819790652263,822.9252599001699
31.2775514574294,580.7589747773195,787.5217327017892
52.044683964452695,580.9863714928136,831.002432023168
44.69242809726054,573.4108997466005,842.692458688747
44.17461620431035,557.8337148771498,830.962663090862
39.99408564596473,550.0573590369801,823.0771976159036
47.91932005322919,542.3289298588204,831.0717727256505
40.348742944838456,542.4227437504144,834.8824522135491
31.85093788398689,546.1457276439967,811.1944445860718
32.09638357645068,542.3452453182281,819.0605354529835
32.39628211468749,546.2823696165358,826.9011334145708
24.55303289094645,546.3078625218602,822.8589783463264
24.607383765098177,554.0454691459367,822.8334854410019
24.498274130309536,557.8796021067337,818.8943217102681
12.965079818286574,561.8381404455141,818.7077136432931
16.736194317121548,588.820851157123,810.8242876007607
12.909913171164465,592.7192262393377,810.7539271820654
13.264162583552999,604.393957161722,818.5690322383281
27.832338260262173,619.5102303029067,791.2640912034182
12.309300321720468,623.4636700606222,787.0934518923384
27.341242932092,627.1111949544443,775.5329291858077
30.649304298613696,626.9439614955159,759.8843641814484
54.69737372089349,623.1363411562563,787.7297548092367
43.81832735949586,642.7057149995157,803.1988497601119
40.0740313970622,638.9011538088951,807.0798896667059
28.05065950146075,611.8409446650998,799.1424186648857
28.787200522094704,600.4405174040065,822.739671549408
24.334303763262685,573.2864943686172,810.9905013434762
20.7531623949055,592.6937333340132,814.7960822503098
24.934100839736303,581.1607429652328,826.6716972666508
9.493486562689604,558.101900241163,830.4426078222432
28.46048344745658,573.3252435847104,818.901459723759
20.671992984352457,561.7779771889484,818.8239612915727
24.606975878612985,573.3548153548868,818.8433358996193
27.86027848449777,584.7603411970449,799.2311339754148
23.679340039666965,596.2933315658253,787.3555189590738
28.432441251599684,608.0751326905723,810.9344169517624
35.75757266752663,611.7818011247471,799.2576465969522
23.897661280865538,588.6240459280183,795.2338464205413
28.650456577934367,619.7151932617153,814.8236145880602
36.16658084055208,611.8837727460449,811.0374082892732
44.25578561486339,588.7494710222145,826.9358037658121
28.95106891752026,585.033625142123,830.6434919161999
40.102787394268184,565.5325722851331,823.0272315214677
32.28676459341366,569.4268685024958,818.9718201424546
31.469054162226655,549.9115396185242,799.402446299195
31.604574446931423,588.5649023876656,795.3490743526078
35.89472449817217,573.1967593418752,811.1638530996825
27.75157673619432,569.2851279488918,799.2811000698506
43.57400335486635,588.5781586984343,807.302187801135
24.143208944950622,584.8235636022496,803.099937287453
32.50467794812704,581.0669290736389,822.8610177787522
28.350965926182745,596.4687227544575,810.9721464516426
32.53149648452836,604.2450785946272,818.858631642814
27.451270311472324,584.6573498595342,787.4513722830937
24.852115656212877,588.8636792380681,822.7192772251484
24.03399733854069,588.6587162792596,799.1607735567193
24.57944354086258,588.7953582517986,814.8664426690053
36.05787909224863,596.4095792141047,811.0883940999221
47.34552574018652,596.2515232010932,803.4089112999853
27.969490090907705,580.9251885200349,803.1702977061485
28.26938862914451,584.8623128183427,811.0108956677358
24.225194128474048,577.1206273294143,807.0513376127425
35.7035277082388,584.7348482917205,803.2732890436592
28.760381985693385,577.2623678830182,826.7420576853464
24.279545002625774,584.8582339534909,807.0258447074181
39.47505009355897,592.4082127943794,799.3789928262966
28.023840965059428,588.6627951441114,803.144804800824
27.205722647387237,588.4578321853029,779.585281416182
35.32174595809986,588.5006602662479,791.4812907567825
31.768136927493085,592.4673563347321,799.26376489423
35.9763017952104,584.80316927799,811.1261235998023
40.156832353556005,592.5795251181596,819.0115890747606
32.15002064925332,588.7015443602046,811.0557631811067
27.751168849709128,588.594474157842,795.291970244681
28.105418262097658,600.2692050802262,803.1070753009438
32.449919187490124,592.6386686585124,818.8963611426941
24.497866243824348,577.1889483156838,814.9041721688856
28.18781133210628,573.256922598441,811.0486251676159
24.525092666710858,581.057751627722,814.8919355743298
31.74091050460657,588.5995727389069,799.2760014887857
31.65892532108315,596.3025090117421,795.3246011634964
27.50562118562404,592.3949564836106,787.4258793777693
31.850122111016507,584.7644200618969,803.2151652195195
20.39891298251697,581.0190024116289,806.980977194047
28.759974099208193,596.5717140919683,822.7519081439638
28.023840965059428,588.6627951441114,803.144804800824
20.39891298251697,581.0190024116289,806.980977194047
19.82634232892986,577.0135571270516,791.2875446763167
23.706974349038664,580.8527886689135,791.3324121896877
24.497866243824348,577.1889483156838,814.9041721688856
24.03399733854069,588.6587162792596,799.1607735567193
47.64583216490851,580.8793012904509,815.2386390867423
31.98645816869166,584.7990904131381,807.1420923556975
43.32855766240256,592.378641024203,799.4371166504363
27.969490090907705,580.9251885200349,803.1702977061485
31.959231745805145,580.9302871010998,807.1543289502532
32.06803546572989,596.4044806330398,807.1043628558174
15.94520045071457,592.4846915103527,787.252527621563
28.460075560971386,592.6345897936604,814.9113101823764
16.491054539521652,573.3119872739418,806.9483462752316
32.12279422636681,584.8327410481663,811.0679997756625
24.061223761427197,592.5275195912978,799.1475172459506
28.13295059984807,584.8286621833145,807.0839685315577
24.388654637414408,581.0241009926938,810.9650084381517
43.49201817134292,596.2810949712696,803.3507874758457
36.79442011288259,585.0081322367986,834.6856469844444
36.49452157464578,581.0710079384908,826.845049022857
24.661428724386006,581.0924219789633,818.8188627105078
39.88405826658442,592.5112041318902,811.1587545186176
39.99326987299435,588.6760514548802,815.0979182493513
35.594418073450164,588.5689812525175,799.3341253129255
27.77829330097434,592.4632774698803,795.2787139339123
32.040809042843385,592.5366970372147,807.1165994503731
24.143208944950622,584.8235636022496,803.099937287453
24.30677142551228,588.727037265529,807.0136081128624
16.981640009585334,585.0203688313543,818.6903784676726
12.828335874126232,581.1128163032229,810.7916566819455
31.768136927493085,592.4673563347321,799.26376489423
35.75798055401182,592.472454915797,803.2477961383347
28.2145278968863,596.4350721194293,807.0462390316776
39.747722208909266,592.4765337806489,807.2318273824396
28.160177022734576,588.6974654953527,807.071731937002
39.80258294116748,580.9047941957754,811.1964840184977
27.723942426822617,584.7256708458037,795.3042068392367
31.98645816869166,584.7990904131381,807.1420923556975
39.80217505468229,600.2141404047254,807.2073541933281
28.460075560971386,592.6345897936604,814.9113101823764
28.26938862914451,584.8623128183427,811.0108956677358
16.27273329832308,580.9802531955357,799.0700188137642
40.375153594754586,584.9102394803527,826.889916536228
24.0888580707989,577.0869766943861,803.1244104765644
35.48520646704023,592.4041339295275,795.3949615821917
39.36594045877033,596.2423457551764,795.4398290955628
44.010237950778304,592.5499533479833,819.0697128989003
24.879749965584583,573.4231363411564,826.6971901719752
19.90822554083199,569.3106208542164,795.2389450016061
46.58216618315124,584.4748206574111,783.8140445514014
24.03399733854069,588.6587162792596,799.1607735567193
39.66614491187103,580.8701238445342,807.2705765985327
28.296513080409728,588.731116130381,810.997639356967
28.160177022734576,588.6974654953527,807.071731937002
39.50227651644548,596.2770161064177,799.3667562317407
28.160177022734576,588.6974654953527,807.071731937002
36.41253639112235,588.774963927539,822.8936486975675
35.45808201577501,588.5353306174892,795.4071981767474
31.98645816869166,584.7990904131381,807.1420923556975
24.525092666710858,581.057751627722,814.8919355743298
16.981640009585334,585.0203688313543,818.6903784676726
36.00342624647561,588.6719725900283,811.1138870052466
39.447823670672456,588.5394094823412,799.3912294208523
28.18781133210628,573.256922598441,811.0486251676159
47.80898675898498,604.0921211626805,815.1631800869819
39.82970739243269,584.7735975078136,811.184247423942
32.01368459157816,588.6678937251763,807.1288360449288
28.54206074449481,584.9306338046122,818.8637302238787
20.45326385666869,588.7566090357054,806.9554842887226
27.833154033232557,580.8915378850066,799.2433705699705
35.894316611686975,592.5061055508253,807.1747232745128
35.676403256973586,580.8660449796822,803.285525638215
16.13598935416274,600.2559487694575,791.1539618524165
12.96426404531619,600.4568328634142,810.7284342767408
24.742598134939048,612.0081781240282,814.790983669245
17.98932357125012,650.9256473923308,834.1808874590203
21.651634350160354,662.4331448557867,826.3484472271367
9.982093783300108,666.3570128433257,822.2359317401969
16.925657589492847,654.520147043078,802.7562929236794
37.74724294228916,662.4851503826486,846.2125190559468
18.56189422483723,654.9310926769081,849.8753396929635
19.37919676953904,693.7547480536168,865.4545639948402
22.90517149077412,705.2285948820445,853.695196626779
45.97156011482005,697.3125379206967,854.0673930445159
45.72601245073497,701.1130202464655,846.2013021776041
34.16569368744678,701.2027552732076,846.0279504213978
18.969780710028402,712.962122641269,849.6856724773497
8.881656834902849,728.8676561312988,888.7265274074226
31.866437570424154,709.3462089500493,889.1364533250397
46.49059566722582,654.9627038795104,877.7655978341228
47.0643899802685,601.0390908210246,905.4284592597882
62.01516318008699,573.7708595697818,897.8947958783071
57.098907374077804,538.7772582890182,874.3913568853789
72.8394507808477,565.7732253113959,878.4610442913738
99.54092376091735,565.496882217679,871.013037071783
86.18202954117871,503.3441593204612,831.7763966288184
113.97368112454305,541.9597925897223,847.7604482672473
129.44175635920524,549.5780924168805,847.9664309422687
141.84660409008174,572.8724895861483,867.6969199471788
152.34254307026356,614.9969663442665,828.465378085279
168.492808451408,642.0959247041549,844.3148271835948
188.03159080827808,680.6340595412297,844.4779817776713
191.99318829569734,715.3890472281565,840.4949702497796
193.6298328175269,735.1083193547237,883.6238674776811
196.8837472531395,707.8951527789817,871.9899252038158
182.20595208353515,696.6130125985939,895.3567222242051
175.34530140261967,662.1282497081063,926.7670407325643
182.0713495434221,638.6513233367154,903.3992239959621
207.21857107167077,591.64138620222,860.7638694151418
190.82357379941163,568.3429101681003,837.0483294499143
201.295039590482,490.74250636048,821.7689017146529
183.20119510740162,444.84304018191744,864.8233596590069
221.5445641477977,475.3927182065232,853.5208251543596
274.51066368229726,509.4869297874402,818.8780062508605
300.8305588554706,493.66705245930063,803.6271305695626
284.7639102037903,420.2454456924638,799.7093808793013
297.0076427730163,323.7802919447518,839.4640371584588
311.27857117364243,238.41270974287858,824.2672064364488
394.6077406657728,283.7380756935345,774.3429203652624
441.9388884073563,360.89184379987057,790.4901265977679
433.5201113530105,472.768988390531,746.8156811959233
377.5723616117635,504.5749567895256,792.9659975628783
422.53266915817335,496.1724951945874,758.3456124160647
452.62449460315196,430.0979437422566,751.1708891415519
466.54056176166176,352.3649768269491,724.1688038218965
522.3526892465827,320.52433807671326,674.0925800349763
506.447155756553,347.55293601790623,654.1397928956372
460.8862353606992,406.01020735929194,661.1095532113413
476.5990424864761,467.75606348753143,657.2111781291267
495.6483610611167,436.65777814034357,657.6017294386974
538.419337898263,374.63557891838707,681.9994595504072
539.1841250579964,328.48526255143196,713.563755206926
546.0457954551249,305.0419868150694,694.1228656065017
561.3242034741733,266.2703369652226,698.4066934172221
583.0818883104832,246.43991577144084,663.478353974089
616.454140812612,253.56773210015655,624.7077238404553
638.675796525827,222.26856265901202,605.5227830094885
636.1672946419012,213.9150474422968,534.8707254770998
636.6302458025932,202.4452794787211,550.614124089266
625.0982751500258,187.09447160855137,554.4176655636737
667.7030382444567,217.71654948427854,554.9530165754871
654.616000367098,232.87055212534355,507.61065195556085
660.1856903223834,283.47600862679917,546.7697939663392
668.4382536340137,283.55350705898553,562.5906910106918
681.6904855378749,252.99363187224998,617.837895713623
658.1901056935856,121.77247072139825,633.6261618391602
675.5222221655714,59.34738162369414,590.9255454207095
696.053188397669,58.51896417227087,516.6687910754438
699.1684214283165,127.8183681481444,481.1602331071263
684.3794771914977,236.2274578984669,476.647988864699
659.9389189988427,383.82322199731817,518.9549948249403
638.6696782285491,511.9097755094758,545.6766581860269
604.8324351333025,574.1797657711859,556.7334410833466
613.7386365374517,609.1774459168014,584.2209113203796
623.0812764807555,648.1479404281789,623.4759066551779
650.9572585949331,543.8941942457415,671.3403659761489
629.477956284766,312.7704159932291,765.9894051485473
601.7161823864419,123.54779664819281,781.9102343817716
604.8895392412293,26.799977566243317,782.2844702319345
608.1985183523426,26.633355937042726,766.6359052275752
603.4160493134762,107.53009437473553,723.1205355549552
589.1451209128501,231.51636899450887,730.3380869104129
620.379028516364,366.5471899170461,714.6517924061734
616.4684168395936,455.3869058241092,694.6704532128709
623.982705613028,544.102216353189,670.9355386395966
619.4204952761647,559.4020384127098,647.267925336379
651.8117807814085,504.49337949248735,592.9935299006287
688.0565738554961,449.55412908587545,538.7772582890182
683.303676586806,437.77334767734146,515.1983602963296
684.22957890819,492.0722163022032,530.7276185037704
667.1697266650692,554.5645046983425,581.2810694783643
659.5157367704569,620.290313205835,569.1709197330384
644.401503061698,643.6560905100112,572.789892572897
656.04462278148,635.8634192104338,576.9156643706058
674.7666124517548,616.2685524618499,565.4877047717621
674.3036612910628,569.8092620823626,561.7137350675308
682.0116961449629,531.1304064078968,569.8082423661496
669.9606899399898,500.20139395206326,561.8830079588851
659.0272927044405,512.0341808874591,577.3775958150848
643.2859335247002,562.2755987008816,557.3493496759852
633.2254133674599,562.7416090102125,600.3681175528851
644.1588106030093,531.5994758658666,588.8626595218551
644.2138752785102,500.71839007204306,596.817465699296
651.6486261873321,481.28055962025775,593.0700086166021
644.4331142643003,454.4304120163359,612.6750725273157
659.465770676021,438.7675709849949,605.1036796459547
650.7502562036987,411.54114809848426,581.5176436397752
651.7322429167963,396.34023851162226,612.980987391209
655.2033569057731,400.0764787159734,601.2460932122591
647.4698291465486,396.2668189442879,601.1431018747484
659.002819515329,392.3093003217205,601.3286902255104
658.86617754279,411.5839761794293,593.4126332641627
657.9922807482678,442.26009901444434,561.8993234182927
655.2023371895602,458.00451734282353,589.2766643043242
654.384524786752,477.108900592965,561.7280110945125
639.9514615082624,500.6449705047086,584.9795801828352
650.6115747987336,508.0542285082062,557.6420082291099
655.1472725140594,508.1949493455972,577.3327283017137
663.3988161094768,527.5817939867335,589.1644955208966
651.4293872015419,527.5685376759649,577.2113820723694
663.0449745835734,515.9070630643492,581.3493904646338
651.839313119159,508.36218280452556,592.981293306073
643.614282145279,492.8441414754274,581.1362697761214
640.2512580748778,485.2727485940663,596.8103276858051
651.4028745800045,485.08104194602646,585.2039177496903
652.1391096857745,492.9899608938833,604.81102109283
644.3780495887995,485.31149781015955,604.7212860660879
643.7784564555685,477.4372492135439,589.0400901429133
647.8226509562389,485.17893470247236,592.9986284816937
654.3569924490015,473.2400972809268,561.7402476890683
651.0490330541012,473.40631102364216,577.3888126934276
655.6112433909644,477.4168548892844,597.0662764552626
639.1061167677036,477.26185802491176,565.4234626503445
643.8600337526068,469.7343129407086,592.9914904682028
643.5051725104904,477.36892822727447,581.1872555867702
643.151330984587,465.69419730489017,573.3721505305075
658.7825608133257,477.21597079532773,577.4918040309383
651.2937649452158,469.60582869787345,585.2549035603392
654.8199436096935,481.0796755263011,573.4945164760647
666.6802628828398,484.9280845140798,581.5084661938583
659.1639346769795,492.7584853135373,585.2946724926453
659.2189993524803,500.49609193761387,585.269179587321
648.1764924821423,496.85366562485666,600.8147532541694
635.4157637929366,500.50424966731765,565.2888601102314
643.4225754972392,504.38121070905976,573.2457057200982
659.8726374449991,516.1079471583058,600.9248826051711
632.1088241142492,481.36111720108295,584.9275746559733
648.0398505096033,496.8200149898284,596.8878261179914
644.1863429407597,496.8495867600047,596.8297022938517
628.6366904090592,477.6248769967319,596.6614491187104
643.5051725104904,477.36892822727447,581.1872555867702
655.4205564591375,469.6445779139666,593.164842224409
651.2121876481776,477.3097846869217,581.3024835188368
651.0215007163507,469.5375077116039,577.4010492879833
639.4069330505321,481.1989823232195,573.2630408957187
