acc_x[mg],acc_y[mg],acc_z[mg]
244.1037459275084,751.1372385065237,558.5821865774756
239.131609673028,747.0247230195837,527.1249611233195
244.48511979116216,766.6807727409463,566.3850550391827
236.50482070839686,785.9809415039796,554.4258232933774
237.32263311120516,805.4962703879511,573.9962168528499
233.96062875701693,797.9248775065901,589.6692550463207
235.98782458841706,731.7850642166286,550.6763267782577
207.0156475452882,686.1456256723754,613.1910489310826
241.34337413897714,654.8933631770279,609.8861486848211
246.01367439441609,712.9978127087232,621.533347269455
230.89740125323127,813.6009748486997,609.1937613762091
222.9711471297538,879.2574426537095,589.2307770747402
234.66729209261064,898.5117241871587,589.3409064257418
242.3753269465108,840.5245420199559,601.4255632657432
241.63909184074078,813.306276863149,585.8075897477732
214.36678172464605,732.3397898364885,593.5217428989513
213.35828239001088,743.6718961113123,562.071655458286
229.23526382607722,751.3931872759812,574.0573998256285
225.16353698765636,739.7826984750145,570.1110980814041
214.80322026380063,736.3105647698246,605.2892679967166
210.48574181805208,747.8099045035768,589.4867258441976
218.1642049017759,801.8099962780359,577.6457811790979
230.46096271407671,828.9385264081008,593.4371064532742
210.2389704945114,828.8477716651457,565.6620762441813
221.96366751133164,813.3521640927331,573.7392483671795
256.2077773755564,809.1132037953838,562.4927982542459
263.6975929598793,797.4129799676751,558.7198482662276
245.02964824889236,786.1267609224354,578.101594326299
248.33760764379278,785.9605471797199,562.4530293219398
252.19213492884933,766.6216292005936,566.5002829712491
243.91203927946856,762.6753274563689,550.6916225214524
243.74888468539206,778.0812000020395,542.7878021546604
231.36952985984001,797.2753182789231,515.0647774724295
242.6853206752561,781.6767193689997,511.36218790310664
254.92701381205612,781.758296666038,531.1691556239899
254.70777482626588,808.736928512795,519.3006786211398
258.5888147328599,812.576160054657,519.3455461345109
263.53341864958986,812.8198722295587,550.8160278994357
266.5140491401243,804.8477308764972,527.3401212442577
255.52660694528717,808.9418914716036,542.8602020057818
251.3722830936151,824.3436851524222,530.9713306786722
255.09016840613262,824.2804627472175,527.103547082847
240.68565718160642,793.7572973441492,562.3123084845488
242.6853206752561,762.3673731600497,515.3523374444893
247.1119087557933,747.0339004655006,535.0930236115289
251.37432252604103,747.106300316622,546.9309091279897
203.51598150234793,717.1592745738863,616.957880621823
201.65295998123725,729.2745229002769,671.8339086232303
219.71213411307636,718.2330357461519,750.6345184135256
264.26353545808206,690.418236604753,708.2245211157735
271.0701411797097,697.8570663784269,680.8288253379086
274.567767790224,763.3901485216666,657.1122656564679
254.9463884201027,751.864296166377,649.0085809119323
274.5137228309362,774.9618881065401,653.1486287366226
285.473632688023,766.9989241993954,637.6407845696543
287.2469191823916,728.8248280503537,696.6650181254557
276.12385473122833,713.5759918014818,712.2483212921845
290.82918223858303,690.1072231597947,696.8495867600047
308.1602789943559,685.611294376775,642.1795414336191
343.39555301759526,661.31451617015,552.5230328399607
381.84803169277995,649.4113688160586,553.1399611488124
413.9385009151954,667.8029704333285,475.0653893021573
409.33958079466487,684.089877787012,561.2834148256541
372.49519458734636,731.1538598807953,599.819510230303
371.0675918891773,805.1679217673723,654.4926147053276
383.63457449791724,909.6031774357197,662.1782158025422
388.57917841464723,909.8468896106214,693.6476778512541
368.98635109848937,805.64310952262,705.4804647866499
398.5601607072752,781.9183921114754,674.6054972901043
456.5259288340055,766.0658838645206,683.3770961541404
477.40257886230273,762.4591476192177,730.796959206253
491.86215476232974,762.1002075122494,703.5430039819919
480.49333870383884,712.0331611712461,719.2394956483612
484.57322327196346,699.4784151570618,617.3035644180226
460.062304660613,656.8267451168341,585.68318436979
423.0292709538936,618.8820851157124,636.27640427669
413.2512121876482,518.0127770441487,597.2243324682742
366.30143830971843,475.71086966497234,584.8898451560931
354.19536742924447,514.2826551370754,561.0305252048356
312.7867314526368,595.9558054993296,571.908857764884
268.17924571591726,712.5797290614023,594.3946199772604
251.0388358919713,744.1572810286898,648.975949993117
247.70334415932047,721.1453452504169,668.6269011334147
206.053035440237,671.4525347595765,699.5671304675909
179.38031845737333,617.6696425384816,718.9723300005609
113.89924184099567,583.4255326742568,725.9563663432468
109.74797713796252,482.9712491013751,738.0073725482199
151.7816991531257,470.9691892746249,730.8275506926424
152.68924658267608,497.2340197722974,640.4868125200758
130.05766495184392,605.6686024279444,631.9324132094039
79.2699851631291,707.2874019160469,701.4719603534337
93.20277566753174,715.5175314709917,768.3714622220637
130.1739126001234,750.5804734542378,827.6761177364341
112.71535131772828,730.8775167870782,772.5370029520785
129.44685494027013,699.19697348228,706.1759112439009
92.96844488178941,579.2956820116963,678.5609764802457
80.37331810557123,509.61133516542355,662.9093523272473
31.651889279213595,428.24613909948863,607.5091901923695
43.23943446538829,432.0252073847849,607.67030535402
12.89961403741339,579.1376259986847,591.0203790285165
59.53766066903581,776.8340870735675,673.4695334288468
65.78709345189235,962.7762793614539,704.3332840470498
114.76294147338797,1035.4810256305673,657.7261348166807
127.94073409370174,988.4629307663678,603.1366470711201
133.55019298129332,902.9148587947976,560.3391576124366
86.6302967884038,729.316331265009,575.9204213467393
32.65865509628671,532.7701100783653,615.0214395333779
6.367444540184468,475.2214058827429,646.2186373532247
-15.774092070176872,595.3643700958024,649.4062702349937
-53.52021332463177,707.8543641304626,648.4609933055632
-84.48542570602602,765.9863459999083,632.1027058169713
-112.41351531868683,746.6464083045689,608.2015775009816
-121.04745249397095,731.0253756379601,584.577811994922
-149.63009794374227,715.3829289308786,541.0308311196994
-169.19743235457574,730.9040294086157,528.9115039284568
-211.20362203198854,727.4645266222411,540.0682190146483
-234.1615128509736,731.5464506227918,543.6351863276451
-261.16359817062914,747.1950156271511,539.2534657604789
-257.337622939536,781.9153329628366,531.3445468126221
-233.53540709620515,801.2175411582957,547.3336970321161
-205.87968368403077,801.1808313746286,567.3711206171323
-170.21612885134067,785.7117364237533,599.354519637185
-151.87551304471967,750.573335440747,580.1247112928472
-155.61991097877464,727.4584083249633,587.9959007408238
-194.15396695099756,727.7561654591528,587.4177216480655
-193.11895499482497,797.5302473321676,602.8970137610703
-182.07848755691293,859.1007122717748,575.382011186287
-163.65629445325368,854.8780674338333,552.1243238006863
-170.8167417007847,816.4561802450379,575.6940443474581
-203.11727246307356,800.8769559431611,536.016886500487
-253.0211642100004,828.3450515721477,535.1766403409931
-275.815900434909,855.6387757287148,538.6681486542296
-253.29444815507844,847.5860767948282,523.3336562434675
-245.20605915373756,843.7601015637349,535.2419021786237
-256.60240754997886,847.7522905375436,538.9822212478268
-240.99769034277762,836.0959145069927,547.104260884196
-252.22986442872948,805.3718650099678,562.7385498615736
-216.07684581381005,820.9215175416682,602.4738315326845
-207.68866024585358,859.651359026783,614.2423763466628
-194.84737397582256,906.2258773383369,641.7502409079555
-172.9000219238986,932.786425537773,602.7430366129107
-168.88335976097855,955.9696736398262,602.7246817210771
-155.24261597997278,955.4057705740494,551.9112031121739
-184.37080960368732,939.6256621782159,492.6585531246655
-212.18968760993818,916.4505718058666,472.6976082556225
-239.3549275236702,928.1966828631593,464.4011971468341
-242.71693187785843,901.3169634890612,484.0654045979005
-211.8888713271097,881.7690036862742,488.51748558376215
-175.9724268736011,876.9528840123795,414.50342369718516
-169.0567115171848,880.5565611090435,391.0479113662668
-151.0974695742175,868.4943380257276,356.0359551936696
-152.54342716422022,875.8556693672151,312.81834265523906
-125.24256499416214,922.0722672880138,313.07123227605763
-117.86287876084087,914.206176421102,305.3591185573055
-130.24121387017996,894.7816022800856,285.6163929578399
-194.15804581584948,825.1757735822122,233.87395287891383
-158.48633325345557,766.231077891023,163.96322903336005
-163.1474560629777,798.946633151994,356.0900001529575
-118.43595927253446,929.5100773454749,285.67553649819257
-117.04608607424554,972.3401977229737,316.9492130340127
-94.98891058618388,975.7562470364498,285.8713220110844
-102.88528702462106,929.4254408997976,289.83393921471657
-112.85505243890627,859.4035679870293,238.90013409268204
-137.5566579820836,847.5993331055969,195.3990404470436
-141.02879168727344,882.4817853191457,199.15465525944134
-120.86390357563492,952.0733379900375,210.99559992454104
-112.14838910331257,998.6091070854983,230.59250610555085
-104.46890630337577,1013.9905064420573,226.73084080700343
-100.15183574411242,1002.4911667083052,242.5323632433094
-103.6776065221049,971.7079736709275,258.2818801527535
-92.08944950620244,956.1776957472736,262.4331448557866
-81.18327869353959,940.4771252160525,246.95079359414277
-84.89994034660155,921.2310014123071,254.80872673135067
-79.97318146359869,854.8219830421194,188.38849148282037
-100.14021097928448,843.159488714291,164.57811790978573
-102.56713556617196,827.1030372247404,97.87725675944387
-97.31396552339484,807.118638882799,31.304777880315914
-75.56556010462289,830.7638184293312,98.26933764333387
-165.67737198737595,878.4151570617897,155.62806870847845
-254.38860365160377,906.1126888386963,146.35680890008314
-281.2540469987203,902.4865779853468,149.89114529426462
-273.73771879286,913.9645036786263,142.11580917030793
-327.4420928655556,949.1997777018656,141.1919462813499
-346.21812749511815,941.747691617423,156.63452861068765
-303.63885730601174,910.5739472704747,169.1515451249917
-324.0240041196535,906.5797188642402,137.46284409048963
-342.80105846542915,957.0566911228606,140.93599751189245
-381.58188576119267,999.7726032845061,124.51244818566994
-396.3698102817986,1050.2567135566173,131.96963285117755
-423.1363411562562,1124.8897431844719,233.35695675893402
-379.05706841785934,1132.7109665380126,281.08681353979193
-366.8398484701708,1032.3708911809845,320.85370641350517
-396.6023055783576,932.4692937955367,371.7650777788542
-434.9456746187537,921.2289619798811,379.0784824583319
-426.6686381180118,1021.725053917495,374.9384346336415
-434.7040018762779,1110.5219417436128,347.04613706005625
-419.2083943038653,1122.014143463874,347.23988314052207
-372.884726180704,1094.6449603075466,355.8748400320191
-307.37713694278887,1132.7517551865317,348.87856709477757
-279.0137304788078,1194.6791208006814,376.56692142576725
-290.3825465372987,1163.924479817267,388.27428326696685
-314.5365644741069,1017.0935028781491,388.40786609086695
-331.1742542050548,901.0477584088349,376.7759632494277
-334.67290053178203,874.1333686834954,392.5132435643161
-297.99370835096596,919.713663687396,330.1147690597707
-223.76958492451556,965.7436535412196,350.69468167009126
-186.73553150158313,965.0696211244413,308.08074112974367
-163.64099871005902,941.7130212661816,312.42983077809447
-151.999918422703,953.2296961755544,312.56545303442056
-128.14263790387136,960.9601647861401,332.5202796061856
-112.61949799370836,957.0067250284247,336.6898992010524
-127.76024432400463,918.5746406774995,352.2915572596147
-108.08278056216956,860.6007148210654,376.3293275481434
-89.00572570653588,852.6805789948659,372.71749272177556
-112.50834892649377,856.6248413066645,360.5777712062733
-93.26824144840492,852.6071594275313,360.8796072053148
-51.34322118154518,825.1309060688412,353.7517908765991
-50.66103103506295,805.9918524674584,377.3735169502328
-70.7468911401957,825.2451142846948,349.5362840521483
-82.1437493945435,829.2373032585033,353.27660312135134
-83.2897064746881,859.8451051072487,313.90943900312544
-101.46737163047526,918.1953062462717,333.0637883477029
-112.89176222257346,918.3186919080421,336.8163440114617
-115.98150234789658,910.8166397291635,360.34323647728843
-116.11712460422265,891.4726231689722,360.40645888249304
-108.68339341161357,891.34515864235,352.6688522584165
-100.59449455216614,906.8285296202068,360.58694865219013
-107.59229706372719,910.927788796378,380.092080374032
-99.0951038326034,926.5141511117457,399.78993846012656
-90.89709533836734,918.8540429198555,415.6363284098036
-83.02580391876941,884.0786609086692,427.64552625004467
-95.13085508303041,845.4130615449722,419.74578474810465
-114.1521314618142,841.7614577862983,427.3222762105307
-109.83567273227862,868.8808104704462,435.1445192802844
-114.45396746085565,895.7523721148406,407.51224934100844
-105.32954678712915,923.0817863388619,442.87906675572196
-108.66503851977996,919.3791967695392,458.53986835463695
-112.43594907537233,911.7058322668803,462.4341645719997
-128.01313394482315,907.9216654005191,458.2879984500314
-131.81259655437893,915.6898635109851,458.20540143678016
-113.00902958706592,907.700386982303,446.7397123380564
-110.24559864989574,907.3975312670484,415.38547822141106
-121.2065282231955,934.6698413831431,426.9031728469967
-125.03352317050165,938.5682164653578,426.8328124283013
-102.13069702701739,926.7497055569436,423.29133802062887
-114.39890278535484,903.4899787389171,407.487776151897
-105.19188509837713,884.4967445559902,454.78425354223924
-105.73641355610735,845.741410165551,447.0578637965055
-94.74856347478499,822.3368836452817,435.52793257636404
-63.15755125348616,833.8759923113399,455.5847307694269
-36.729158275252004,852.8406744403034,436.29373945231043
-63.703813228778436,872.3580427567009,431.89978229058863
-63.70422111526363,891.667388965651,427.90963274920597
-59.98704960409519,891.6041665604464,424.04082943716764
-83.05303034165593,880.209857596631,427.6587825608134
-102.07563235151659,895.86861976312,431.24512448185675
-71.38390785844301,895.5963555342549,427.78114850637076
-48.07197157031199,883.8798162471385,436.0194357910195
-52.47051745499228,864.4633998358257,424.2447726797633
-65.67512861170736,849.6887316259886,490.8159259278143
-85.65096133745979,826.4881483483147,474.89611641080296
-74.17211789958856,814.7930231016709,475.10719766688936
-66.98383239944324,837.7743673935544,455.5143703507314
-61.84925535223548,865.0997027527239,486.8961368051272
-33.83938449929385,896.0460503841782,510.7595356212367
-72.48193827657764,842.2499018523147,518.2106019894663
-58.56719674914471,803.1366470711203,483.2302570194716
-50.942574681466155,830.0887662963398,475.4039350848659
-50.72425344026758,822.4205003747458,483.28226254633336
-54.38625830431392,791.6026369861269,495.1048523195995
-58.2121315637858,776.1916658593914,499.0246414422867
-61.275053152707606,791.8677632015011,518.549147772175
-68.46497019879368,846.1238037454177,522.1823966390155
-87.95093125583152,873.2502944430566,510.0253399478926
-74.17334155904413,872.721061728521,463.13878847516736
-62.50381118934601,868.797193740982,467.2513039621074
-42.390826632948055,853.412735235784,495.0763002656361
-35.20172535983236,837.7764068259805,483.4627523160305
-43.15408421836204,841.6360326921018,475.4814335170523
-49.08006301846196,837.2838838951121,416.5387772582891
-56.29639071446417,849.0524287090902,428.1645618024504
-66.71197605706334,876.462400513937,455.3879255403222
-58.07732508043013,853.4637210464329,486.9919901291471
-68.7644608505453,822.876313521947,518.3319482188108
-76.83327130059705,777.4989420444292,628.2532771129795
-99.78963254526266,742.9621736270797,639.8005435087416
-88.8846853920554,785.1886220064957,612.3487633391628
-104.10894648019459,831.6988981966321,608.0394426231181
-72.98180316417941,874.016101319003,608.3626926626321
-85.46985973803491,897.0443525566836,576.7015239658804
-66.42003130528775,865.9460672094957,577.0910555592379
-43.8443301229268,846.3206089745224,565.722239500747
-59.47443826383118,757.5624703644977,577.5611447334207
-62.31750903723494,688.3308775167872,620.9225372578812
-105.6048701646332,657.5374873172797,600.7556097138167
-97.43490386625403,684.6272682312513,608.6349568914972
-96.04421489499474,688.8386961908502,647.8879127938695
-96.2900684739437,711.948524725569,636.0326921017881
-135.3153217459581,700.536880586133,623.7124808165888
-131.57194352811615,762.2694804036038,607.8620120020599
-145.73274257774062,805.1842372267799,634.9772858213561
-124.20245445692466,817.189356202169,698.0538716075317
-113.62289874727865,774.3724921354388,678.7333085202389
-126.60082698984874,747.0726496815937,643.3093869975986
-116.34860018456864,754.3789163475806,604.1920533515523
-144.3326722173219,785.2294106550148,568.3469890329521
-129.16541326548824,808.2199323928152,556.7232439212169
-122.00394630174424,827.3334930888734,537.1426531996146
-106.58991602636988,807.904840083005,541.3642783213432
-86.77693197983002,807.8926034884493,557.3595468381151
-137.17120525357797,765.72325921696,556.7466973941152
-127.05460070462392,715.0678366210684,525.6718655198259
-89.17408085329853,679.8488780572368,514.5844911361169
-68.73448119388375,691.5796933713348,546.2476992652945
-68.02669617045576,753.5478476340036,553.898630011268
-81.69517623245451,750.2429473877421,604.7253649309398
-149.33845910683058,724.1759418353873,658.7448313134455
-146.9309091279897,712.1983551977486,619.5744724243243
-122.74629970479216,727.7337317024674,647.356640646908
-101.89779384397325,739.5675383540761,690.8006301846198
-118.57362096128648,682.4379375219877,777.08493726196
-124.66948448246855,582.492492339382,844.0486812520078
-111.1908755793263,558.7157694013756,793.3116813590779
-99.27671529013476,589.6111312221809,797.3099886301643
-162.6335190916368,721.9611182207992,831.2359470359401
-170.80858397108088,907.2751653214912,779.4680140516896
-229.0303008672687,1028.3328149775919,852.7560379946261
-176.762706938659,976.2915980482633,704.5790356543774
-158.80346499569174,906.3003166218842,681.5365083897152
-155.79326273498086,805.6502475361108,677.9960536982558
-122.60965773225314,727.7684020537085,651.283567783086
-108.72112291149374,626.8572856174127,628.2838685993689
-101.55863623153678,568.7324417614578,624.6628563270842
-75.56484630327381,506.4879444050721,609.5639183615201
-33.804204289946114,513.7269098010024,590.5421321246298
-2.405510546414933,594.7321460437561,590.7389373537345
-5.169767453717632,672.2734063110237,606.1346127372752
-40.56063997389527,707.1201684571184,578.0149184481959
-24.928492400564924,699.331576022393,586.1237017737965
-64.47074179255914,633.7240545956062,570.0550136896902
-87.4807401100274,552.8309871362801,589.6060326411161
-94.66780195071713,471.92058450133334,621.168288865209
-61.02144973053999,401.87933698051836,606.2100717370356
-15.733201450036457,343.35374465286316,591.3874768651884
13.840914073613314,300.3207007489816,564.5036786262384
-0.5912967221222334,304.5484441679881,591.7453972559438
-70.31626498345511,298.2649528636181,692.7615444621762
-167.6984495214982,369.2575956111414,757.7827290665009
-229.74716136499214,494.2126006332438,830.9993728745291
-266.8107865581009,606.8739069916843,849.6866921935626
-232.21283516797277,652.9283700346194,838.2760677703396
-230.07754941799698,640.8814426944982,791.2528743250755
-210.31035062941987,647.5850570786151,693.4111036898432
-211.2658247209802,685.9651359026784,657.9453738024708
-276.14934763655276,756.1420056798194,660.6618977938441
-314.2846945695013,857.9453738024708,761.7871546348653
-285.7306011736934,908.3387293316271,797.3660730218782
-277.5035307673875,827.309019899762,829.159804826317
-239.48545119893134,734.1966930603214,833.9687864867209
-232.59318931541353,579.4567971733467,842.4426282165674
-283.80333753116514,459.8440853910357,834.2298338372431
-334.3894194245742,467.83152248729186,817.747140970668
-387.52071298557615,526.3815880040586,828.5275807742706
-379.92484691510356,607.394981976516,808.7450862424988
-328.02231139074,645.0836932081802,742.6766530874459
-337.0651547674283,629.3606889202736,707.2721061728522
-357.6695405668603,633.035746151846,667.7050776768826
-330.9407391922828,675.2468987880674,652.2645347799709
-302.52226805280094,725.6055839659823,683.9175457470187
-297.1973099886302,741.3928303753066,723.1898762574376
-311.3285372680783,710.9379859585079,766.2524919314956
-341.17155195709034,560.8092467866194,825.1808721632771
-360.57879092248635,334.06718910127313,978.7154634865118
-366.3320297961078,328.761605645149,813.8130758209992
-424.16217566651204,344.6487842433451,808.968404093141
-385.7688405316801,576.029530981528,757.7429601341947
-443.9925968602938,812.9432578913289,807.0911065450487
-442.14181193373895,998.7783799768525,822.1910642268257
-471.90732819056467,1053.3464536819406,841.1842984097527
-432.79917199043507,979.819816145167,873.414468753346
-378.97447140460815,800.7280773760663,796.3331004981314
-315.8632152671912,672.1785727032168,754.541051225444
-290.93421300851975,690.7659598333785,692.0579402752214
-287.38152172250466,706.1086099738443,680.2853165963912
-297.29622246128906,682.4430361030526,621.347758918693
-313.6361550580474,608.9541280661592,609.5771746722887
-340.6902459045648,520.3183554016917,625.1686355687214
-345.0056849178874,435.2699443744806,629.3158214069025
-372.5788113168106,408.29437167636246,617.2199476885584
-387.53192986391895,512.8010074796184,608.7940326207217
-374.36535412194786,663.7292041624817,624.1805305583457
-365.7334563790897,775.8959481576278,627.8566075061311
-380.0574100227907,814.9082510337374,651.0582105000179
-410.66623158774917,807.4765592735542,658.4735868007934
-417.2270857020491,757.6195744724245,701.7146528121225
-409.7372701177263,707.3006582268156,705.9209821906564
-411.1281630322282,683.7798840582667,670.6581758296667
-408.5554190268849,675.7057710839074,635.4025074821677
-394.3140623964351,663.7067704057962,604.259354621609
-363.2412699545717,640.3583282772405,616.5775264743822
-359.578449317555,632.5574992479593,612.7331963514555
-366.5482096332591,621.2162155272189,636.2152213039112
-355.3415284526317,590.1424033691425,632.5636175452372
-335.00226886857394,542.9234244109865,562.3836886194573
-364.7392330714363,562.7446681588515,589.3439655743807
-388.68828804943587,683.4311411134282,651.3722830936151
-379.12946826898076,772.6593688976359,686.536176981946
-342.9489173163109,811.3871709503246,722.2690725171185
-340.0488444066017,753.1899272432482,706.8101747283732
-352.31603044872617,652.6917958732085,706.9651715927458
-319.5963963229034,566.970372145432,668.4984168905794
-298.49438901153815,570.1478078650712,609.934075346831
-310.4373052979356,612.6220472842408,589.9894459371958
-329.02265299567136,632.250564667853,605.3433129560044
-340.14775687926056,655.6204208368812,612.9473367561808
-339.43905411124086,659.6605364726997,632.5666766938762
-342.96523277571856,667.4960358532221,640.3369142367679
-347.17360158667844,694.4705888351273,624.4844059898131
-339.249386895627,725.3608520748677,624.4986820167949
-335.31532174595816,775.5553629424932,616.5397969745021
-323.59164444535094,798.6784477879808,616.6366700147349
-323.61815706688833,756.1909520580424,624.629205692056
-323.97097887657867,705.897528717758,624.7933800023454
-328.6147665104802,670.9722484232639,609.1427755655602
-335.9393880683006,647.9562337801391,624.8096954617531
-355.01521926447873,636.5670233973885,632.4116798295036
-332.3316321067847,651.7271443357314,617.0017284189811
-325.49749404740663,663.0337577052306,589.5937960465603
-314.3193649207426,686.0202005781792,573.9849999745072
-313.7197717875116,693.8944491747948,589.6661958976817
-316.0192318477768,702.0379028516364,632.7746988013237
-327.41558024401814,706.0300918254451,636.5150178705267
-334.767734139589,698.454620079232,648.2040248198927
-334.7126694640882,667.5735342854084,656.1588309973336
-327.6878444728832,667.3430784212754,636.641462680936
-304.73097337011114,682.5705006296749,629.0853655427695
-296.1245685325774,713.6320761931955,648.7322378182153
-304.10384789912973,713.6228987472787,640.7631556137927
-315.3095093635442,706.0780184874551,652.395058455232
-327.11578367740265,729.276562332703,640.3654662907313
-323.5630923913875,725.3098662642188,632.5829921532838
-335.06855042241745,713.8268419898743,636.3742970331358
-344.13790642064316,694.2350343899293,600.9830064293108
-356.2164449633667,698.0559110399577,585.0907292500498
-321.2901449526597,713.2976092753387,589.4867258441976
-292.92571877246564,717.2999954112771,629.1445090831223
-286.36486465816563,747.84865371967,589.8935926131759
-296.8883359760979,740.4740660674136,621.1580917030791
-303.69494169772554,713.7258900847894,652.5429173061137
-338.41118016855916,676.3624683250653,769.8877802307619
-362.5131925785054,653.1231358312982,746.0570123334677
-330.3686783968022,659.9429978636946,671.9481168390837
-331.0508685432845,717.7007438829775,640.3460916826848
-350.23784880667716,768.0737050878741,632.0394834117666
-315.28503617443266,806.4935528442435,632.433093869976
-301.20683413805943,771.2827520101157,601.3664197253904
-294.07187979585285,747.9077972600226,589.7783646811093
-294.97126949569935,716.7870781561493,570.24672033773
-280.89204774311315,662.2669311130713,543.1691760183141
-262.93280580014584,611.5849958956424,516.1364992122692
-246.81007275675185,615.5058047345425,535.9883344465236
-251.34475075586468,596.0547179719885,520.2867441990894
-256.9521702110303,585.0550391825956,583.0339616484732
-262.69623163873496,631.9497483850245,629.8848230537442
-281.5813759030862,628.3328149775917,641.3882416523481
-300.0311013444959,647.9960027124451,660.6690358073349
-327.46962520330595,659.6737927834685,644.5197901424034
-315.66335088944754,675.0939413561207,648.5690832241388
-304.0222706020915,686.6106162654934,648.7047054804649
-315.63785798412306,736.8907832950091,636.5874177216482
-323.3458928380232,794.8779654622119,624.5027608816467
-322.88294167733125,822.0279096327492,632.2668801272607
-337.47813983368434,803.0428331795263,659.5850774729394
-330.6429820580933,775.7307541311253,640.1564244670709
-356.989389852804,749.0631357293266,663.3998358256898
-359.99653296487594,695.2394548597126,698.8574079833583
-363.08423365777304,591.1896519198707,742.3330087236723
-354.3656600368118,463.94130513478103,797.8371819122739
-359.03494057603774,347.9088169762356,798.159412235575
-366.276965120607,278.57117364237536,825.7570118236097
-351.51759265396447,262.8400116247649,810.3327843861055
-365.0686014082281,270.15443602045553,751.2361509791826
-375.53292918580763,400.82698984872513,644.6737672905631
-362.98328175268824,457.9178414647204,550.477482116727
-345.162721214686,523.0583328659635,495.58004007484726
-327.20551870414465,588.2334946184478,444.60952516914546
-326.1980390857225,673.4470996721614,456.11090433532354
-341.44993448323333,716.0885725502593,451.81382021383456
-359.59884364181454,739.6888845834205,478.9352123304085
-403.6872938261282,775.3432619701938,533.0984586989441
-459.5809986080874,814.8868369932649,579.2232821605749
-454.746524042359,857.5843942630768,598.7753208282136
-419.5744724243244,869.0256101726891,611.0374082892732
-376.996221951431,895.7788847363779,611.5849958956424
-396.20971483636106,903.6653699275491,611.2699035858321
-430.5354019976241,896.2989400049968,622.5551029148588
-456.692142576721,896.7119250712527,645.7097989629488
-455.7366684851606,877.6422121723526,677.1853793089384
-454.6731044750247,835.4280003874923,716.5892532108314
-427.5058251288667,765.7538507033494,736.8550932275548
-419.1156001284843,688.6276149347638,772.562495857403
-424.38549351715426,622.6499365226658,745.2330816333815
-428.32057838303604,591.7637521477773,749.2028368505046
-409.3253047676832,572.237206385463,745.628731524017
-375.0261302279576,575.7358527121903,734.3567885057589
-351.8795919095716,637.3542443138075,722.7218265156808
-332.58758087624216,737.6209001035013,703.0494613349106
-317.8842928013134,830.0092284317275,663.7118689868611
-302.3621726073634,883.9838273008622,655.9130793900058
-265.1109196310667,972.1882600072402,601.2287580366385
-209.3569159702855,1067.775438095578,523.2490197977903
-137.56073684693553,1136.3717477426035,469.14899583445936
-73.85304869654776,1208.791993188296,403.1397062197591
-48.870511336695,1254.4242937190581,336.64197253904246
-18.263219346055998,1358.4047559564176,309.27686824756677
68.15670998761045,1391.922827877002,239.8158392519362
126.94855021847421,1390.7195627456879,158.28340972707298
185.33240199252552,1331.49444509593,76.94034150295973
307.8890344817038,1294.6011125103885,-46.68729892470925
404.2348814324974,1231.0727924418636,-143.14572254541562
463.9545614455497,1226.249534754478,-197.17946495490307
460.59153737514856,1237.9864683658539,-185.495556586602
424.6292056920559,1210.9028057491603,-217.33925448547672
401.78144422407246,1191.8443097286026,-205.84399361657654
359.74874192512226,1145.9162914960768,-186.694742853064
321.5155022357278,1092.2180357206591,-167.46391479251326
301.8951425818195,1003.4578576782083,-159.60904080394428
325.4261139124982,964.7626865443349,-139.50227651644548
345.13009029587073,949.276256417839,-123.4570419052378
345.13009029587073,968.5856026267892,-127.44617173040744
314.2744974073716,984.2637394013246,-131.88601612171334
261.6347070610249,977.2858213559167,-93.40508736418656
209.21415570046855,981.9469441654388,-51.035164913604554
156.60189769187238,959.5274635069062,-8.576792278708837
127.30239174437756,944.700789770207,38.12973849377719
117.4050261812138,929.7599078176544,89.05202082260509
48.26174075754718,903.3166269827109,99.87936757200472
26.177032931735102,915.3411205661466,126.98016142107653
-28.617519744255176,950.3031106443078,94.64465439268254
-80.87695594316102,1036.1030525204837,124.96928104908406
-107.85232469803655,1074.9338459106832,116.58517434597954
-114.73948800048949,1036.5823191405832,148.00874916510736
-90.90739447211841,905.2734623954155,195.90379997246768
-61.331749374149176,785.0020139395208,184.97856046662216
-33.973987039406936,703.7897753055325,213.1349645393687
1.2529253108859806,684.3499054213213,233.35083846165617
-22.631989517317333,711.3703456328105,205.4299888341075
4.06794369127072,788.3313873748937,182.02240316519914
-15.663962719175256,838.5677066072512,158.0091060657819
13.681736372767462,885.297221783178,217.16080414820559
56.07021765842567,865.6605466698618,221.78623689027347
78.42729168472415,873.0147399978586,198.54894382893244
127.24120877159889,845.2723407075811,167.97683204764115
130.08519728959433,837.2665487194914,140.5739982562853
168.34800874916513,836.9004705990325,133.29934279290075
179.03361494496085,906.1055508252053,93.97959547857833
191.30284041951126,910.0559314342819,113.77279703058642
199.7195780414311,894.7275573207977,137.49853415794385
190.159738544763,824.8076560293271,98.34510255795813
222.0513631056477,801.6651965757931,134.2221859656458
211.8827530298318,767.3466474280209,181.2810694783642
212.0744596778717,717.1898660602754,197.15193261715268
175.53190946959464,671.6442414076163,263.47631454166304
156.12772965283764,671.7584496234698,259.2608077172123
160.36261108533495,687.272412087716,267.12180000305915
152.68210856918523,729.8190513580071,259.0140363936717
156.9710349609704,791.6893128642299,258.8692366914288
156.28884481448816,810.8273467493998,235.2464909015821
129.8323076687758,826.6135734425111,246.570439446702
138.08487098040618,826.6900521584845,262.39235620726754
119.3904136478818,811.5350298012064,281.7873585781077
115.78163797015291,827.074485170777,285.6051760794971
100.83106871357703,854.3427164220199,293.13883946097803
101.34888060652722,869.9199012914708,304.8676153426502
100.61193169940807,900.6306944777269,277.2802129167453
131.2772455425655,857.8709345189234,281.8087726185803
164.59443336919338,837.9517980146126,247.05378493165352
168.0390347366328,837.8192349069255,235.33112734725927
167.46493450872623,911.0511744581484,203.67913609642437
156.12263107177273,942.0903162649835,203.40483243513333
187.44015540475087,953.5611039447723,215.60879607205317
225.48474759474442,941.55496525317,204.4449429723708
217.04149735128715,914.395843636716,188.71174152233436
209.82700514446833,868.2363498238442,212.30695497443065
203.89327650114976,830.1213972151552,271.21596059816557
184.76238062947084,810.9955999245411,278.84343787124044
191.51494139181068,810.6968230741386,251.4732349986999
178.25557147445866,807.4938944491748,314.0797316106928
178.14544212345706,849.947739544085,302.1602687971938
171.63761325223192,885.0647264866188,329.4172831700938
168.05636991225344,923.7813116609649,329.2327145355448
166.93774122661665,938.9485706127987,293.8434633641458
173.52612767866705,973.3660322332296,254.5792905834307
192.02989807936453,980.7487776151899,231.2838736979499
214.3596437111552,964.9248214221984,212.0489667725472
234.11766505381556,976.4843244125162,224.07957865326082
233.29883293479426,995.5887076626575,196.53092544344912
229.17306113708557,995.5499584465643,188.61996706316634
237.37055977321515,1007.1991964636243,200.4772271876737
249.3399886811501,1007.2124527743931,212.43034063620095
253.02932193970423,1022.5918126985262,204.58464409354877
263.90867421596573,1022.3266864831519,185.12539960129098
270.4970606680161,1018.1274951181088,153.84050618712814
312.3941407106403,1044.7094573580175,134.75549754503322
345.9846124823462,1024.855582691337,107.85334441424952
372.4401299118456,1028.383800788241,92.5394502709896
399.6053698255776,1035.950095088537,96.84550789515279
388.8086145625673,1047.8093946454703,116.26702288753042
361.94317121545083,1044.1894020893988,119.80135928171191
311.1398897686774,1040.5286208848079,99.42946877883887
314.5834714199039,1079.0229079247247,79.7281436576201
286.7625539812271,1133.0780643746848,43.80741639601699
282.3634982384403,1152.2895178271888,24.053677861451163
267.6296186771222,1210.5051164260988,31.485879479740795
282.3614588060143,1248.836248871939,4.1048472210183915
289.05895489285336,1260.1041130253452,-27.229787950013517
304.36285581722615,1283.1293051143869,-34.9275236701626
295.29349981900043,1263.540556663081,-70.31881427398756
287.04093650737,1263.4589793660425,-86.1406290629318
289.8584124038281,1251.5894826469794,-113.53112428811062
311.8883614690032,1231.8273824394673,-140.6066291751006
303.8275048054127,1200.8993896998466,-144.54783233826026
311.45396236227464,1150.617183237905,-136.41457582354832
315.2809573095808,1127.4084422305275,-132.3540658634702
309.0188800456833,1120.1072741456055,-89.25249703007654
283.7085039233582,1105.2806004089064,-38.56148633835204
271.79413969092406,1093.696624229477,-46.550147094063725
267.777477528004,1070.5184747084888,-46.532098117094016
286.6901541301056,1058.6897666379448,-54.05821559859891
284.1816522461799,1031.0248657798536,-120.721143305818
282.40938546802425,1030.586387808273,-171.76609749506716
273.5296966854125,1038.071104811531,-207.24610340942118
269.1857056181265,1045.7087792467357,-223.03538925117144
276.1014209745428,1049.308377478548,-246.49192129830274
275.55689251681264,1029.8623892970588,-258.2084605854191
279.90088358409855,1002.9225066663948,-238.42902520228623
245.22135489693218,964.5709798962951,-230.96980110435268
219.09316637179873,930.2350955729023,-199.84806228426632
205.0985810648897,880.5045555821816,-148.87040936507373
197.44765031891626,811.0639209108107,-133.0515517531471
167.76677050776772,742.0760402380018,-86.16836534392479
160.63283588177413,688.2125904360818,-58.62113973681125
149.37516889049778,595.6916990001683,-31.005389200185594
133.6888743862583,557.1239923929171,-31.110216026879723
118.05764455751967,526.2928726935295,-31.240331815655708
87.58454722050854,518.8958512845876,-19.89802837870221
73.23438687013406,515.4196387145458,11.295702406020405
62.79198299113357,519.6514609984042,42.522064109558315
47.13301688140191,504.26190391214135,38.414749175304514
31.80158361927876,477.36790851106144,46.12502740487323
23.358945205549297,450.20980661082024,30.391723983215474
8.682037189050288,419.6183202214824,57.74744688553176
0.7028149266059256,400.29979656661556,53.76851422249189
-21.899731304777884,396.74710528060046,69.14043021827027
-53.137207915037244,435.50141995482664,48.91864194194756
-87.16462808400424,470.689787032269,60.06403817817502
-125.89008478940313,482.52563311630377,51.594887142908135
-159.6171985336481,483.0324320741538,78.56026267889648
-182.90139854078612,479.3084284643584,74.2994804545895
-205.42183110440365,448.742434980345,97.61294631703998
-220.26278086808443,452.86616734562773,113.07531114090949
-250.1088547057354,437.9038713526026,144.07570373165152
-318.68069116364916,473.39407442908646,158.62705409084654
-386.21751566539035,540.0406866768978,196.6369759295988
-489.7431844717616,595.0401003400755,198.82528692264947
-546.7555179393576,649.7509343149802,209.56085921288107
-604.9945700111659,665.5351215756656,192.93642579270193
-661.0779420087391,658.6887469217318,243.1390943900313
-687.2611952093733,635.9246021832125,270.2961765740595
-754.1586576455773,574.2909148384006,242.0296431503113
-822.7835193465659,505.4977999622705,276.55621440553097
-918.2738243946711,471.6972666506912,306.6368229721669
-1022.9487133730685,441.4473851927009,293.3968276628615
-1126.4193175039388,426.94702064415475,311.5192241999052
-1233.08163338143,428.08808308647707,345.2391999306593
-1363.8602376958495,444.60952516914546,347.149128397567
-1501.1956172597168,469.2010013613212,380.33069396786874
-1673.558248739376,482.3849122789128,405.176079497076
-1846.0942319752414,510.976735174601,422.11866437570427
-2003.8647244471865,543.1457225454157,419.6468722754458
-2128.9635094553187,587.1291419597926,468.6442363090353
-2223.746131451617,653.914435612569,498.39649625509225
-2253.5422391948323,723.9261113632077,513.4128372074052
-2211.948014867463,770.7372038361725,592.3694635782863
-2128.576017294387,809.3477385243688,656.2822166591038
-2008.6573906481829,816.2644735969981,669.8291465485156
-1874.9827922889062,760.8561537324164,648.471190467693
-1754.1260267267623,682.0504453610561,595.6019639734263
-1606.6444708437643,572.052637750914,539.3136290170446
-1499.1153961852417,434.96402951058724,447.1955254852575
-1379.1355865662588,309.5960394222288,378.7725675944385
-1298.7513574972086,192.97823415743403,388.219218591466
-1248.4385595488777,126.99443744805822,408.8185058098332
-1161.711695635105,87.212146859529,363.1566335088945
-1185.1345770472078,44.83478048059226,362.948611401447
-1131.6198701901262,21.137391463955584,355.98089051816885
-1083.6014337209956,16.3687905655856,297.84686921629714
-1039.182595483677,65.75782759657987,235.5513860492625
-983.7314475381502,99.48014867462386,161.700478756762
-931.0386319487287,172.12503760203538,111.22452621435457
-883.5178169915314,276.3604288926392,127.28301713633098
-856.1904421999358,365.06350282716323,119.54439079604148
-819.9303533826537,473.32575344281696,143.27012792339895
-758.1671620787936,546.2527978463594,132.17561552619907
-673.9916281298915,557.0332376499621,113.77687589543831
-601.7304584134237,575.5380277668726,83.39963188244712
-552.7810210418442,567.1396450367864,52.76419572432992
-495.74217495271074,574.22565300077,30.046957931607636
-454.1999561522029,589.1339040345073,3.1465893041966426
-395.9088985535326,639.0153620247486,7.776090713954308
-364.0182937088609,673.8009411980647,31.684112311543704
-336.9621634299175,704.507655519469,28.061162578454418
-309.08822074816584,696.8016600979948,55.97711756818078
-305.07053886903276,681.3651960659349,63.93855190100596
-323.5467769319799,639.2315418618999,95.200909586862
-316.46586754906116,608.1200002039433,83.63804153304136
-327.50735470318614,585.1682276822362,103.17284699668083
-331.90641044597294,565.7518112709233,91.39899965839507
-358.3619278754723,562.2276720388716,106.7133016881402
-396.214813417426,562.6967414968415,125.76771884384577
-434.6132471333229,582.3374954750094,125.12631734588267
-468.28631591827997,609.891247265886,148.0760504351639
-536.5583558095783,630.0102481479405,174.45814829732888
-588.9534142648102,657.850540194664,212.82599052683642
-653.9440073827454,673.9335043057517,223.5717599791978
-733.1484247933801,686.5749261980392,269.438595238945
-790.7052867187062,683.2210795735547,276.43690760861256
-830.221329404027,679.4104000856563,248.38553430580274
-869.0562016590784,675.771032921538,239.96675725145695
-912.2891099407036,672.0245955550571,215.78418726068537
-961.5934085543994,688.0565738554961,234.6142668495358
-1053.8053259777805,688.8397159070631,241.08028735602883
-1126.093008315786,724.3941611049646,259.5004410272622
-1235.9878245884172,737.3078472261171,308.8302325462824
-1305.022612207023,726.3397796393265,319.6076132012461
-1321.0933397235551,710.8472312155528,303.72043460304997
-1332.5447527952972,668.4831211473847,315.46552594412975
-1368.8874386258308,606.5435189386794,279.80910912493056
-1464.8121427806643,568.7711909775511,298.1221925938012
-1584.7307694268688,561.8544559049217,284.5752627043894
-1698.5616902815948,582.5006500690859,329.89654979019343
-1742.0525867651036,626.0292760524746,399.74099208190364
-1782.2599970428234,626.9041925632097,461.9294050465756
-1823.2321944802763,673.9294254408999,492.5545420709417
-1898.8543488347198,667.1636083677913,534.6147767076422
-1995.1359536640955,675.6445881111288,533.1443459285282
-2041.13535203153,614.2739875492651,552.2854389623369
-2030.7648381455442,579.1264091203419,525.0865484135766
-1962.851738361214,585.9513697338032,482.9100661285965
-1887.882202383077,635.0343899292828,413.22469956611076
-1808.140394528203,699.7669948453347,367.1049746855451
-1778.4258640820262,753.3153523374446,324.1993953082858
-1749.5678952547507,783.4795776335446,261.7356589661097
-1654.7240902856736,763.0505830227448,223.97862674817603
-1595.2542407448009,704.0987493180648,174.04822237971175
-1554.037311416233,614.6533219804929,159.26947530502264
-1485.3798187964292,474.9124318702106,168.61823354560428
-1367.939102547761,400.1080899185757,127.45942804117614
-1272.4426792023783,337.3618921854049,117.32752774902745
-1193.078166346306,309.31357803123393,79.36451285607217
-1120.6783152248731,347.1623847083357,48.924352352740236
-1052.7040324677644,342.41560573692345,10.712322760575734
-957.2993835815494,345.301402619651,-15.340610708039954
-846.0391672997406,332.7293214298461,-25.405515644996
-749.9757817399419,331.9176273243157,-31.813106412485407
-669.5436260088818,338.8924862210847,-46.33029627854569
-612.8871734996151,311.1256137416957,-72.86035496321375
-548.0597349757563,291.14019568354126,-87.52030509909093
-502.8261434842684,263.49670886592264,-110.29760417675762
-460.68331183431656,247.66051607837545,-113.53724258538851
-434.0360877567773,239.6455466443689,-120.95975689965483
-406.32529966910215,228.03709727582816,-96.95828850830816
-375.41566182131515,220.09554740915604,-92.54383505070541
-380.4408233188704,188.9360790891895,-119.98592791626092
-340.2976551625683,204.48981048574186,-76.26671697266652
-333.0821432395365,192.72126567176358,-87.89270546007047
-332.8088592944584,173.48024044908303,-76.04992530578741
-328.6555551589993,177.38779297721445,-68.15161140654557
-305.07053886903276,165.7395746763676,-52.06059153737515
-304.9614292342441,161.9054417155706,-48.12132583502012
-308.897533816339,188.94729596753226,-56.12079558258937
-312.4787771563174,208.3555546491412,-52.31531664737704
-315.8683138482561,216.22470466469184,-40.61876379803501
-312.2605578867402,219.99561522028424,-48.42662886918571
-319.6677764578118,223.99188305894475,-40.70187066939271
-314.66912758179404,251.28254806687303,-13.246725436311076
-299.4743362922099,297.45121932566167,-28.87336654209134
-313.9073995706995,301.6789627446682,-1.6314541663055173
-336.31974221574137,344.516221135658,9.662178215802543
-385.4343736138233,406.93916882931484,24.414351485981452
-417.93476875385585,465.6829804265474,74.74948121937665
-451.8260568083903,520.215364064181,85.83165505039949
-519.6076132012462,571.3520927125982,119.96553359200136
-563.4227794404818,607.0747910856409,181.98263423289302
-609.3915863215268,607.5000127464527,189.14206176421106
-622.9782851432446,596.492176227356,243.9201970091724
-660.6119316994082,550.6722479134057,278.8322209928977
-720.4131890094988,543.8901153808895,332.9047126184783
-800.2977571341896,498.4321863225465,371.10736082148344
-904.0141128723876,468.422957890819,385.35381603299805
-1022.9283190488088,430.86375061820297,407.2471231256342
-1168.4826112892783,401.3174733471675,436.5629445325367
-1322.3781821519074,379.39867334920694,446.10544885358405
-1529.5641223047628,373.50777278683347,470.4940015193772
-1642.518087216328,402.09653653388267,539.3493190844988
-1748.0689124216733,407.3796862333213,604.4683964452694
-1841.4953118547112,455.19825832470826,677.4759984296371
-1948.8816262434166,495.774805871526,793.4687176558765
-2003.0795429631935,524.1575869435536,890.6772445228494
-2008.555419026885,532.5019247143521,953.3602198508157
-2001.447997022429,466.6394742343207,949.7647004838554
-1970.499609958549,419.0921466555858,852.2726925096746
-1912.3349971702876,386.8456608525848,759.0624729137882
-1837.8243334879905,389.469390668577,685.6021169308583
-1687.507966532914,368.01150239888244,581.9612201924206
-1539.4859610570381,296.7690291791795,533.3982552655597
-1391.9840108497808,209.94937109002566,473.1075341732396
-1274.7064491951892,111.93322898237422,432.0231679523589
-1195.0360214752236,68.51259094593975,405.89090056237353
-1129.9577327629722,44.725976760667514,399.09653143530164
-1063.849530675613,90.71324050516742,407.7814544212346
-1001.6804923189878,163.7429703313568,408.4656840001428
-959.5672324392123,259.89405148547166,381.3004440864108
-932.5671865519827,360.10156373481266,361.7433068377071
-902.0684943380259,448.604773291593,334.42918835688033
-848.5303340080457,506.0137763660374,311.4896524297289
-806.7709156541736,551.8714341798678,284.4885868262863
-735.7915292174189,581.6410293015455,214.80831884486548
-664.1309723503949,611.5798973145775,164.76064711190878
-603.37628038117,637.9120290823064,134.1844564657656
-564.9778466652731,637.5796015968756,130.83672813855904
-538.87719047789,648.7383561154932,103.71737545441106
-501.6514304069178,675.1459468829826,61.01492354677694
-459.70030540500585,670.8468233290675,49.884007280773766
-456.7737198737592,674.4464215608797,22.443342017916418
-426.43614282145285,662.4994264096302,11.164159014546252
-380.27664900858093,650.5361157989732,11.896009340600513
-371.7518214680855,650.6819352174291,35.57096460055167
-374.4867003512923,635.5452677519847,70.90260180591741
-385.4741425461294,620.330082138141,90.41242422233893
-419.36441088445093,597.6250809399744,117.4539725594367
-441.2566982608741,578.802139364615,156.43568394915698
-468.5310478093947,575.0730371737546,148.19025865101744
-536.6939780659043,591.3568853787991,178.51152024391612
-597.1764058062641,603.7127867314528,208.96024636343708
-669.439614955158,662.4464011665555,223.37903361494497
-783.3796454446729,686.9277480077295,264.7601372538023
-852.4705174549924,726.1501124237126,263.5925621899426
-927.9866213232859,773.4782010166572,297.623551365655
-989.2317967909532,754.7470339004656,312.46756027797466
-1026.8950151172928,743.6780144085901,339.41356120591644
-1066.439609856577,735.9985316086534,311.37442449766235
-1105.1378401390893,732.3938347957765,306.8825745794946
-1161.8442587427921,713.8044082331887,341.4173035644181
-1196.7185532266371,706.3003166218842,336.99581406494576
-1222.823288278872,695.1415621032668,364.11516674909376
-1256.5962892527011,649.2930817353532,399.08531455695885
-1322.5413367459837,645.8270663274411,386.33478302988283
-1422.463328455691,646.6693519193609,392.6845558880964
-1498.880861456257,643.5663554832691,411.17405026181217
-1528.3710543355787,659.5871169053654,445.99939836743437
-1566.6613981328999,656.0843917137861,453.2873101415876
-1619.8395986396988,687.5885241137393,468.08237267568444
-1704.32308688492,730.798998638679,466.67108543692297
-1772.9703823425943,754.683811495261,481.26118501221123
-1818.4803169277993,820.8776697445102,488.20545242259084
-1838.2424171353116,828.6264932469294,472.18469100049464
-1820.3565947596787,804.9578602274987,437.2104643277776
-1787.5931128366979,746.2823696165358,394.7290868951171
-1732.834352199783,679.41855781536,321.2065282231955
-1735.2408824624108,589.9925050858346,270.4521931546451
-1759.4693396827665,508.79148333018924,254.6649467453208
-1779.4761717813935,443.1034043225771,246.7376729056304
-1796.1995176742314,373.3803082602112,223.17407065613642
-1791.0499507986929,299.30200425221665,164.63216286907357
-1789.7855026946004,240.6938149113102,102.05523802725703
-1756.7976832047643,193.65940458770325,63.46142668495359
-1668.5718364579138,173.56283746233424,57.00142250411711
-1547.3377758969682,168.2287019522467,-0.033823986784477886
-1408.972482957993,174.79261521518563,-9.757174978203567
-1312.3849632647236,170.248759770156,-0.4458933478812847
-1185.0631969122994,173.16922700412476,5.376127423737974
-1083.7543911529424,176.53836937180384,38.27922889059975
-1006.3273391015282,206.92693223475908,43.261052449103424
-913.8992418409957,217.7848704705481,40.68433155052949
-837.3481260165297,220.92151754166818,26.121866284612995
-775.5023376994184,228.21758704552525,30.94828509225883
-725.9808395323582,243.13399580896638,12.016641768595802
-684.5742429881765,238.69924999872538,-14.820453467799913
-626.8266941310235,249.82435388231457,-17.917637521477776
-600.3161120260232,241.7757338132798,-29.267282915164714
-574.0788138661011,252.96915868313855,-52.45970846313471
-559.7548602224002,233.266202015979,-79.65105311191896
-517.4764063161223,236.77402578862302,-82.95421984061836
-478.47837946699434,244.3158468998078,-70.6215680176207
-463.7179872841388,228.5857045984103,-86.04589742674614
-421.6302203096879,224.3212513957366,-93.25039641467781
-417.3127418639393,212.82191166198453,-77.44836412026534
-386.5672783264418,220.28725405719592,-80.9376290578332
-386.29399438136375,220.35557504346545,-73.08459055844759
-363.5553425481689,223.9429366807218,-84.52988533291186
-359.5111480474984,212.37527596070015,-76.5810954811276
-344.31533704170135,219.92525480158875,-84.22815130549169
-324.39314138875153,216.07888524623598,-64.29371905798617
-314.1694666374348,219.51634860018459,-103.39820427974895
-313.37918657237697,235.16287417211794,-83.81618595544862
-339.9173010151275,258.6520371380645,-76.44373970723949
-347.78849046310415,293.4274191492508,-88.45273360423795
-373.1814635986805,324.927472684352,-49.69321837732559
-381.13525005990834,367.40579096837354,-65.65412245772002
-445.47220508532484,418.4099565091036,-43.24218769916333
-497.8121988650559,453.9878551799035,-4.90001172673645
-546.9268302631378,497.10145666461034,13.841933789826292
-591.3426093518174,563.5685988589377,52.19866111261236
-657.9504723835357,587.9663289706475,125.68614154680755
-678.1265773735171,600.4690694579699,207.75902066454907
-687.2051108176596,605.0435163893889,278.25098275150026
-780.7599944935325,594.8993795026845,359.301086507625
-883.2761442490556,561.3282823390251,408.8980436744455
-961.1437137044761,551.1341793578847,498.03245756705917
-1087.1602433042885,502.199018013287,539.480862475973
-1209.6791462935867,499.4875926029786,561.2028572448288
-1340.1212442577232,485.19525016188,578.9194067291074
-1457.8882696945443,494.26562587631867,624.2202994906518
-1527.3411409604707,463.88624045928026,627.2080679946771
-1576.5628425609157,433.59659006898386,657.9698469915824
-1625.9171072690474,383.96394283470914,688.7948483936921
-1682.4603712786736,349.967624010238,731.2333977454076
-1726.4917173550605,335.4315693942376,797.3405801165536
-1768.3102792492853,281.83630495633065,824.3681583415336
-1780.138987319829,262.5473530716402,820.3311018543541
-1826.383117578378,262.90425374618246,819.6376948295291
-1808.3953235814477,293.32952639280495,776.6332029796109
-1743.928864596983,280.9777039050033,750.1685081041946
-1634.8192298083445,271.7278581370805,677.2659368897637
-1525.628017722668,235.4647101711594,612.3049155420048
-1420.0771925173226,210.8722142627707,551.1749680064039
-1303.0239684295861,178.4523767035634,490.2438651323337
-1192.4153508078703,169.5777865020165,460.5344332672218
-1092.7482881514077,191.8463491610285,442.3284200007139
-1012.3140929879216,218.13157398296056,423.82159045137746
-958.8575099549797,225.31547470339007,408.9000831068714
-902.0103705138862,243.93855190100598,378.2912615419129
-840.4919111011407,301.35673242136716,363.320807819184
-810.4826826694132,320.22250207767183,336.2340860538513
-768.1501838038475,370.0866248922925,324.926452968139
-731.0620854216272,415.7688915174908,274.30774015591464
-684.9576562842561,453.9960129096073,263.09596039422235
-647.2964773903424,484.3753983266457,232.15980992489793
-629.2301652450124,526.40606119317,189.11860829131254
-580.1175732793564,560.5298445442634,154.41766556367367
-542.483926723193,587.0394069330506,123.49477140511797
-519.3639010263444,625.4796490136796,115.86219555097817
-488.9182340554624,648.3172133195333,100.54238705368297
-465.9888952904407,659.6768519321074,92.99832256682966
-416.0574712057634,674.6962520330593,85.84633896386636
-400.72501822742737,662.9705353000261,86.11554404409253
-385.8840684637466,658.8468029347433,70.65328119184433
-381.97549621940215,647.2444718634805,74.67555179393575
-380.23076177899696,643.8202648203006,125.73304849260452
-425.13600464990594,659.9603330393153,160.32794073409372
-478.401900751021,641.2383433690405,183.14103185083593
-519.5352133501248,626.433083672814,221.82090724151473
-561.8687319319034,634.4980192012563,221.15911141929203
-649.1890706816293,627.7872668036485,259.1200868798214
-748.1249968133869,632.7369693014434,292.9430539480863
-840.2818495612671,660.5660444698242,295.39343200787226
-946.8146614797104,661.7417772633877,333.0403348748044
-1046.4021862715606,689.6993366746035,343.22831955866684
-1134.0264004527542,717.6701523965882,365.3683979748436
-1199.2372522726928,702.8037097275829,376.21613904850284
-1255.9742623627847,680.3454798529569,410.76310462798205
-1263.2652332855769,641.8889223129204,430.40691775478894
-1237.7723279611287,587.2443698918592,399.5768177716142
-1238.1496229599304,494.4634508216364,407.73250804301165
-1281.0796755263011,475.34479154451316,395.38068555521005
-1418.2213090097027,488.3981787868437,436.4528151815351
-1497.6775963249431,543.4587754227999,466.47428020781825
-1492.6198039085725,578.4870470548047,493.9036266207115
-1467.269658853941,625.2124833658794,549.0702737428174
-1520.6110139548166,652.81212238634,559.9526851677178
-1549.693320348947,688.245221354897,602.5676454242785
-1576.4812652638773,676.9151545124993,610.0544018599625
-1571.6987962250107,673.2564127403344,637.610193083265
-1546.0631306307457,637.9558768794645,606.7168706948858
-1532.0420327022991,614.3168156302103,571.685539914242
-1509.9243880428078,586.8517791498626,548.5614353525415
-1493.1704506635806,578.3504050822658,478.1979575084255
-1478.0582563872476,574.2939739870395,470.5888351271841
-1513.9114784355515,562.6824654698598,438.6941514176606
-1538.2521044393347,562.5529615108115,403.0081628282849
-1570.3119821753608,543.1732548831661,371.19607613201254
-1693.9423758368048,497.7010497978413,369.49722892119127
-1830.2376448634348,432.73492986901755,340.2028215547614
-1901.556596799111,347.81602280085457,300.17488133052575
-1822.518393131192,254.03476212570044,266.35395369468677
-1692.637139084193,187.0832547302086,248.90151070956955
-1520.2745076045337,135.2796316785039,232.03540454691463
-1375.7705230634315,110.49236997343641,183.26339779639326
-1234.4480531068205,85.9051765893552,154.06586347019626
-1085.0902193919433,88.37401151259606,128.82278861792764
-1003.9809720954659,114.83024274344453,129.94855531705528
-888.9498452580648,148.55123819041162,108.01038071104813
-831.7488642910679,178.84904631041184,85.21697011721639
-769.9306083117069,201.5856587111807,86.0662917510057
-708.4111291827485,220.38412709742883,79.07511739482902
-651.7822090112322,208.05779751495163,48.56796153630445
-612.5934952302774,223.37189560145413,64.80184364691307
-574.6315000535352,238.3790591078503,45.696746595422496
-545.0587101609623,233.9636879056559,10.83305716019232
-541.6141087935229,233.83214451418172,-0.8887917892450532
-510.35062941983256,237.56532556989393,11.34077386263403
-495.59125695318994,241.14350976123347,-8.073317595713114
-499.88120306118816,256.51165280702384,-23.88787200522095
-480.5045555821815,233.21827535396903,-15.669877073210527
-468.9705454971882,229.26075673140167,-15.483676892720759
-430.682241132293,232.76348192298087,-22.77128275201012
-435.2434317529432,209.4446115646016,-38.45941274543295
-392.90991317116453,201.37967603615917,-37.79802480969547
-392.7192262393376,189.8415870863139,-29.907052867187065
-384.3300209551682,189.9527361535285,-10.158657645577238
-376.5149158989054,205.36880586132884,-10.093589554027115
-368.9720750715077,220.71553486664666,-17.881641539159652
-388.3752351720517,220.82974308250016,-22.09725033523171
-377.087996410599,239.9820529946516,-33.766678733308524
-380.9415039794426,240.01162476482799,-33.82449664258438
-399.52787139339125,259.6411618646531,-18.470629623775704
-429.5646321628691,294.83462752316035,-3.3408146512825483
-467.2003181514585,326.2520840450103,15.612569022041168
-496.9107697327834,369.2514773138636,38.570153926162355
-529.6834291016811,389.30827550692646,89.03172846996682
-555.377218520086,436.18055095266993,115.96110802363702
-591.9218081607889,467.87231113581095,166.3269312150429
-651.6965528493421,522.8870205421832,208.41673762191985
-737.6270184007791,559.0053688058614,277.6503699020563
-813.4153864979378,586.9547704873734,307.8186740630083
-920.1664176859581,576.489422993581,341.5763792936426
-1002.8154364640322,569.9540617846054,403.1539822467408
-1103.9957579805541,552.1671518816314,488.0402583960884
-1215.389557086263,506.7755043771319,506.1473591899375
-1313.9961148812286,480.91346178358566,555.7779669917862
-1394.2069921940724,446.9589513238466,582.1631240025902
-1458.54088807085,420.72573202877646,620.5340253807366
-1535.0399983684542,444.6360377906829,631.0819698877802
-1615.4242274375044,426.08841959282734,649.5633065317924
-1677.3719873759135,403.31815655703025,644.7879755064167
-1760.8459565702867,415.8861588819832,678.8169252497031
-1821.1621705679313,412.8361876889662,717.1694717360159
-1757.7256249585744,253.47289849234963,691.1850631969123
-1652.1646025910993,170.95236395711075,642.0245445692465
-1515.1045464047359,88.36381435046627,612.9595733507365
-1363.1464363467649,86.62631989517318,552.4475738402003
-1261.3685611294377,73.66939780659044,491.22177298057954
-1124.1147588626086,95.40006016325658,446.10850800222306
-1028.9854333538976,136.8357186195082,404.22366455415465
-965.027812759709,166.8347498891059,354.05974517291844
-923.59470359399,224.1968460177533,315.2411883772746
-884.8159157306523,297.3359913935952,307.7258798876273
-715.042343715744,534.5240219646872,156.40815161140657
-513.2109333972355,617.3066235666614,72.81079675526303
-505.66809256983794,632.6533525719793,65.0227141786441
-516.1375189284823,652.3257177527495,92.27187673670419
-527.698041635013,633.1061065705414,96.08816466377408
-508.04912992714134,629.1914160289192,108.1694564402727
-550.2714994417055,536.8744678356014,131.39655233948392
-588.3415845370234,525.7024570062152,146.5617718588917
-633.818888203413,499.21736780653947,173.44251094920287
-683.4240030999373,511.31324152488367,184.43301229267897
-720.8394303865235,496.44373970723956,219.24408437131947
-785.5852916133441,528.0365874177218,233.86579514921
-839.2611136320763,509.2116064099362,244.89912457363118
-850.7135464200314,544.0859008937813,240.68565718160642
-896.0276954923446,560.1229777752852,263.50078773077456
-959.8466346815682,588.0856357675659,305.62118562404083
-1008.4697628649947,623.5992923169483,340.09473163618566
-1058.210500017845,654.9698418930013,343.1681563021012
-1083.3872933162702,678.8006097902954,389.8058970188597
-1100.5287228564293,691.0688155486329,448.3773765760989
-1199.6757302442732,722.9971498931849,470.3318666415137
-1325.9165974109408,720.3499666042941,495.92266472240783
-1318.2687258136061,712.5532164398649,496.0633855597988
-1340.6514966884718,701.3312395160428,519.3139349319085
-1386.8650354606316,705.5569435026233,518.6072715963148
-1432.395364370096,729.2633060219342,533.5440746840155
-1465.3627895356724,741.5478272396792,580.1043169685877
-1475.8862608536047,734.1732395874228,611.367796342278
-1457.378411588055,683.627946342533,600.0418083647322
-1365.4917836366142,617.1118577699827,597.7178751153555
-1313.0477788031592,558.3904799294356,567.3048390632888
-1307.1334247678872,496.0888784651232,528.3567783085967
-1304.5943313975722,484.14494246251274,493.1143662718666
-1328.6698311859811,484.0847792059471,465.28121223863405
-1411.093492680987,489.18947856811457,530.74801282803
-1530.4410782479238,486.27716906384956,532.8945154563486
-1615.6587621664894,425.03199359618225,531.8248331489347
-1636.6649161538346,332.05834816170665,500.42675123513135
-1626.8756405092465,234.97728582135593,469.5038570765756
-1566.9163271861441,168.42448746513847,435.30563444193484
-1518.7245389608074,128.94005598242012,389.06456333202476
-1459.7951390128128,127.78063864826422,311.4590609433395
-1413.7141633483402,142.82961051939247,304.24864760137257
-1334.0539327905044,195.95682521554255,258.1676719369
-1276.4909525679006,199.31067184002694,251.16935956723248
-1191.9360841877708,206.32427995288916,244.5626182233485
-1089.3628303243208,170.39457918861183,210.89872688430813
-1016.9680777839529,150.31534723886344,192.42860711863892
-924.6215578204586,149.56687553853763,189.88951374832385
-847.6615357945885,191.42520636506862,179.1274288365548
-812.9269424319212,218.203973834082,175.63286137467944
-782.3456532047131,241.07518877496395,164.23957212707705
-763.732773169227,244.62482091234014,144.88331897233002
-694.4257213217562,274.9705556943503,137.96964304833966
-664.7978667536826,278.29279111623237,103.08107253751282
-646.1034094211582,293.4478134735104,83.68658002477912
-604.8059225117651,273.5378544151163,56.900062712547104
-585.8922261934504,261.7142449256372,49.37394523104221
-574.6865647290359,249.95079869272382,41.73229390260691
-568.125710614736,261.18909107595357,6.471047707423025
-530.1351633840303,241.44534576027496,-4.66715952950294
-525.6820626819556,229.9806763777641,15.0613104373053
-517.7843606124416,218.38344388756613,23.068020169986696
-494.74489249641834,187.28923740523015,27.44260272366201
-480.2302519208905,175.3585577133884,4.1525597426236285
-460.36312094344146,183.08392774290917,20.12256988879995
-440.00550646755016,183.20935283710546,51.824017375964274
-447.0303314587551,202.7491549101885,67.3513381226005
-458.72749613782486,202.80421958568934,63.25136514508013
-469.33356446900837,222.4419144152183,86.57400845344742
-471.82371146110046,242.12345704190528,121.79184532944483
-460.9729112388023,257.3039723045077,98.35550366333051
-495.38119541331656,257.6404786547904,105.6884868940974
-495.1915281977026,304.0304283317953,101.60992795704956
-524.8469151035267,335.45808201577506,128.53216949722892
-546.6045999398368,355.2874834933438,163.4605089403619
-592.0288783631515,394.46905926080774,178.34632621741372
-632.34539827566,418.48745494128985,232.60644562618225
-684.1123115436975,458.0707988966671,286.64222746809565
-753.9751087272414,490.37234937516894,375.7531878878109
-833.0439038815499,522.3567681114346,421.5557810261405
-924.5726114422357,542.6205686957321,443.66424823971494
-989.7538914919979,512.313583129815,458.4888825439881
-1054.8760280014073,489.7431844717616,473.2880239429368
-1144.5396746085567,420.654351893868,456.4790218882086
-1233.4691255423618,378.78276475656827,455.2890130676633
-1300.3421147894544,340.3272269327447,423.0200935079768
-1361.4231159468322,344.80887968878267,437.7886434205361
-1461.1513615760737,353.4224225398072,448.0388307933903
-1540.0366078120462,373.8697720424406,501.73300770395605
-1607.8375388129487,363.20965875196936,547.8486537196699
-1667.970203892257,367.9309448180572,590.1036541530493
-1728.255826403512,368.7497769370785,628.4439640448064
-1796.9439105097053,369.4564402726722,647.03543003982
-1843.259420903163,377.51627722004974,642.3896029734925
-1840.577567263031,365.60701156868043,611.0730983567274
-1783.3306990664498,345.714387685907,600.2243375668552
-1684.6119724880566,309.8142586918061,566.5023224036751
-1566.8653413754955,258.2563872474291,529.1939653194516
-1433.1907430162187,222.15639387558446,503.84585969724634
-1308.9179281405986,197.27837742756194,427.2988227376321
-1215.3079797892249,176.54142852044276,354.2025054427353
-1131.5484900552178,187.21887698653467,324.02502383586653
-1056.1098846191105,224.83212921843852,270.0830558855471
-983.606022443954,239.53643700958028,247.57180076784633
-937.6107029413715,281.59871107870686,232.41983755920728
-865.5137075351931,334.8187199502379,190.14954138263323
-846.9558921752077,349.9400916724876,166.828631591828
-808.7777171613141,415.2049884517139,143.63314689521908
-773.9880591231462,449.7223822610168,140.11308652801927
-754.3401671314874,484.42536442108167,144.21540485282947
-716.2700820361695,534.2160676683679,121.06988625065645
-667.4022219616281,533.5216409273299,86.4822339942794
-640.8641075188775,529.3418241703334,75.12004609117284
-599.867436892313,544.1134332315318,32.51344750755865
-561.9870190126089,566.8235330107632,9.456542244293415
-543.1559197075454,562.7028597941194,-2.021352857499758
-523.3438534055973,581.9999694085136,9.984184201536713
-530.151478843438,593.8715055600027,33.38989359261318
-503.53178710364915,601.298098739121,21.98967027476254
-507.16707540291543,593.6583848714903,29.810281798575463
-514.7099162303132,578.3116558661725,37.59826240357309
-526.1878419235927,570.6974349038663,41.376718859141505
-541.056324025024,551.6440374643737,60.841367847328094
-574.0196703257484,563.9285586821188,107.40161013190031
-620.3973834081976,544.9414427964698,106.77142551227993
-665.9572840878384,545.4696557947924,125.70959501970604
-722.0131237476612,542.4920844528968,175.90002702247966
-771.8905028730505,554.5196371849714,179.03769380981274
-828.2471588157017,566.9142877537182,217.39737830961647
-877.6065221048983,575.2096791462936,236.25295080379135
-962.3010916062061,587.4697271749274,234.94363518632767
-1029.6176574059439,627.1377075759817,284.8210143117171
-1055.5592378641024,658.5011191385439,307.87475845472204
-1077.9726002253574,682.0290313205835,323.1582650548353
-1087.323397898365,705.8434837584701,381.8072430442608
-1086.7523568190975,709.8489290430474,397.5006755619911
-1182.0448369218848,722.4383454084729,423.5024192767153
-1258.217638031336,754.1545787807255,441.8777054345776
-1342.8030978978552,743.271147639612,448.49668337301733
-1361.9635655397103,739.5858932459098,452.1472674154783
-1379.400712781633,728.6066087807765,506.86727883629993
-1402.6604395996596,728.7514084830193,502.5936481877094
-1390.8011400427263,732.598797754585,510.6075979055029
-1378.9622348100525,713.2690572213754,522.6239337592349
-1386.9466127576698,674.6411873575585,522.6351506375777
-1349.8289426052731,646.9548724589947,487.9627599639021
-1353.0512458382834,581.4901113020247,519.5321542014858
-1371.079828483733,519.1619972161748,456.6788862659522
-1348.9723809863715,491.6969607358273,433.55478170425175
-1352.5821763803135,487.9260501802349,441.3627487470238
-1344.6793757297346,495.6391836152,445.37941090994383
-1332.7384988757628,491.7836366139304,457.34476095302676
-1424.80867574554,473.2910830915757,471.7268384208675
-1509.9957681777164,454.53340335384667,462.6646204361327
-1534.265014046591,408.08227070406315,438.91033125481187
-1550.2745585903444,342.3982705613028,434.9670886592262
-1521.793884761871,279.7815767871802,380.66108202087366
-1468.9623877674844,236.60373318105573,358.04989471430105
-1445.508914868992,205.61251803623057,374.2042389602974
-1461.4164877914477,194.0224235595234,362.23175090372354
-1438.401492864536,178.3697796903122,362.6284205105719
-1381.9602004762078,138.96182692356717,332.21028587744036
-1255.1788837166619,103.1279794833098,330.30545599159757
-1133.4247678870972,74.7522344531517,292.9787440155405
-1034.5122952282381,27.31452636731198,267.1483126245966
-963.3432415758696,-12.382719889054878,217.32803760713398
-833.0897911111339,13.447201643782536,191.71990435061926
-756.3224954495165,105.46210989481628,165.0869563000617
-687.1806376285481,209.14277556556013,138.3000311013445
-669.2509674557572,251.1387680808431,91.33180035995983
-637.5785818806627,293.5936328919662,107.36184119959415
-634.7345933626673,304.89718711282654,75.96906181009827
-607.9231949748386,300.78569134209954,72.45991240637731
-567.0081016453122,323.2602366761331,25.901505610988462
-555.1753147099164,323.23882263566054,33.927997838201634
-548.1770023402488,319.1395634594893,14.423579917708903
-505.7894387991822,299.50288834617334,19.049420546261977
-505.8434837584701,291.7652817220968,19.07470950834383
-509.915210596891,280.1547929211301,15.128203820876651
-499.0623709421668,256.7166157658324,-0.3286178256591191
-490.6741853742104,256.82776483304696,19.41978147481556
-490.2928115105567,253.0619528585195,31.21208567655622
-490.2112342135185,264.6683627946343,31.17415223343344
-501.6351149475102,284.10109466535465,30.937476100401266
-535.3622286917551,303.91825954836776,53.91310998149216
-576.1967644404563,350.97816277729913,88.4642563974446
-616.3501297588882,398.2083586137978,142.6481010334824
-634.7998552002978,437.1808925576013,157.93874564708645
-649.3410083973631,464.5521151463548,177.25217072088842
-671.7258187046546,472.6394844314828,196.5125705516155
-672.3254118378856,464.7652358348672,180.83137462844093
-670.6622546945187,469.04396506452264,227.93716508695633
-685.6398464307384,473.13506651099004,239.47321460437564
-672.4712312563414,508.2061662239399,278.79857035786944
-662.8563270841726,527.9346157964239,329.89553007398047
-699.7537385345659,509.3329526392805,380.42552757567574
-741.6508185771901,502.060336608322,395.521406392601
-798.7426899093982,467.9273758113118,422.25326691581733
-836.786262383179,422.00547587606377,445.38654892343465
-899.1225341987326,383.691678605844,432.8083494363519
-950.2256122121215,376.1019308326493,404.59586097189157
-1000.2121009722996,372.65427031657094,407.78349385366056
-1027.731182411935,372.7256504514794,391.67197768860933
-1071.3444448410007,372.745025059526,355.697409410961
-1125.5933473714267,369.22394497611316,347.04715677626916
-1167.7688099401937,400.50170037678515,346.30990195428615
-1225.0768611095534,393.34737142653205,361.1743051908654
-1385.2028980334774,406.6138793573749,405.82665844095595
-1469.951512494073,430.446686687095,400.5516664712211
-1543.1161507752395,419.43986988421125,403.418088745902
-1574.1869037846768,423.47794608760387,395.0900664345113
-1601.9843677504552,442.79035144519287,367.1355661719344
-1590.3392085982473,434.9976801456155,371.2613379696431
-1545.1351888769357,442.1051021500717,340.5168941483585
-1534.3363941814994,410.9293183706975,325.0855286973636
-1446.028970137611,402.43916118144324,318.5878969882682
-1342.2932397913662,417.00784671625894,308.31833500736747
-1235.4269806712794,385.0193491151413,286.4800925902322
-1115.916240510266,353.21542014857266,296.22654015387525
-1012.4731687171461,363.8469813850806,278.11638021138725
-912.3380563189265,374.64577608051684,275.6558049894715
-843.7937521987632,393.21378860263195,249.1472623168972
-783.1757022020772,419.5112500191197,214.64516425078904
-749.4496081740452,438.31379727021977,183.68963917341804
-737.3160049558209,422.9201613191049,203.54657298873727
-684.131686151744,468.654433471165,172.79193200532293
-664.6459290379488,460.8372889824762,180.95985887127614
-641.307684071523,491.60824542529826,181.20561047860383
-625.6489219050338,506.9978025115611,185.31302738447891
-614.4973053999073,487.4967496545712,177.69676698974678
-615.6699790448318,475.6170557733783,146.32213854884188
-604.5458948774557,471.5565458133002,134.7279652072828
-594.3487327476764,471.1252058552106,95.63632840980357
-601.9466382505749,486.6595626437163,95.47011466708817
-618.070391010182,502.0481000137662,71.6289456644216
-648.789341926142,517.7609071395431,71.1157224944298
-670.6826490187781,537.5566579820836,102.11846043246167
-703.5919503602148,557.5787858239053,148.65320981170942
-724.9131966573703,581.3799819510231,195.34907435260772
-759.8119643303269,550.6987605349432,194.92997098907378
-822.0391265110921,489.2404643787635,190.2800650578944
-845.050042573152,485.5847817552376,193.87252527621567
-932.6161329302056,482.6734919671856,223.96740986983323
-1018.5465984816427,499.4835137381267,297.19119169135234
-1086.62999087354,527.3737718792861,327.47472378437084
-1131.864602081241,535.7068927717418,354.2412546588285
-1154.267767280366,520.6161125358814,377.50404062549393
-1142.714382587326,520.5273972253523,377.6773923817002
-1133.7204855888608,528.5127948891825,413.1064124854054
-1128.723876145269,536.4941136881606,444.55140134500573
-1088.526663029679,559.7854517087895,488.2462410711099
-1152.7789816094182,564.4679885587842,522.5892634079936
-1213.1053927691923,580.7263438585043,556.9526800691368
-1307.8268317927123,616.6305517174571,594.6587264764217
-1375.801114549821,640.6866768978194,628.881422300174
-1335.552915623582,691.024967751475,668.560619579571
-1349.4924362549905,726.269419220631,703.5542208603347
-1391.8004619314445,718.8938118521617,706.8703379849389
-1422.0554419705,742.4472169395258,718.1116895168076
-1434.7815003084643,711.3468921599119,690.5528391448661
-1428.3878796530928,641.445345760275,667.3369601239975
-1391.596518688849,586.6437570424151,628.8263576246732
-1370.437407269557,501.0110486251677,590.1862511663005
-1337.7962912921337,461.6112535881265,539.7877970560794
-1331.6983883385255,426.3912753080818,500.75204070707133
-1351.5930516537248,414.7971019665228,484.79450169017963
-1424.125465882845,415.5333370722928,503.32886357726653
-1448.3437259410707,396.12915725553586,475.55893194923857
-1457.1948626697192,368.8680640177839,448.04596880688115
-1473.7754482927403,318.48796479939637,424.4201638683955
-1468.656472903591,279.1605696134766,357.91121330933606
-1481.5252915113726,248.02557448262152,326.42645551742953
-1429.7033135678341,274.10889549438394,260.39575186225676
-1420.4646846782541,292.74726843519454,189.8283307755452
-1400.9779078482459,265.62077773755567,201.98538746666804
-1297.2931633126502,253.14251043934473,195.73146793247443
-1221.4772628777414,248.37023856260805,161.561797351797
-1116.6708305078698,220.7257320287764,190.69712898900238
-1062.6054768957802,177.85584271897133,203.4252267593929
-1025.0799202581923,130.96215323275533,184.52274731942103
-983.9496668077276,107.14872051108178,153.82215129529453
-927.5114335680381,125.66982608739988,111.434587754228
-881.598711078707,194.74540235452474,88.34127862215946
-847.2730239174438,240.73052469497742,69.07720781306563
-828.8528702462106,313.74526469283603,29.86065577949657
-774.5774550942473,321.13514808828705,38.49795801828351
-759.953704883931,305.3703354356483,19.14710935946526
-710.7850285265612,269.993320858805,0.37980655983439815
-688.9457663932128,261.770329317351,-34.58693845502797
-658.309412490504,253.7604584644094,-38.02562546843214
-634.9966604294026,242.043919177293,-29.787644098647352
-632.2893138839462,234.003456837962,-61.116895168074734
-612.2314959746703,249.50008412658758,-41.245583354152544
-601.2705664013705,241.53610050323,-56.753019634635685
-589.1104505616088,249.32163378931645,-40.89867589849745
-586.7018808665549,237.34404715167773,-80.06842295789083
-573.8871072180613,222.1217235243432,-40.578892894107575
-555.3833368173638,210.19512269735338,-59.8845681246909
-512.3951604268532,217.742042389603,-43.56768111434588
-496.653801247113,225.42968291924362,-35.50855796831742
-512.1228961979882,237.12072930103554,-39.704384269857705
-503.81628792707,244.9348146410854,-23.907756471374018
-495.37303768361267,272.09393625753955,-8.174463246878394
-483.92264432808355,295.1476804005446,-15.930006679141197
-494.7469319288443,303.14633437514345,3.504020231169666
-501.4994926911841,322.75445743449603,26.88441006867789
-535.7181096500844,350.17156725283354,34.12867798891569
-554.031193118955,369.86942533892824,57.33558350710998
-575.4340167131488,401.3735577388813,100.07953786461229
-619.1951379930966,425.5245165270506,166.06078528345563
-655.5204886480094,430.2376448634346,228.29508547771158
-743.086579005063,446.63672100054566,254.4008402461595
-841.6951762324546,459.3933708248995,296.051148965243
-971.4316305772105,468.44947051235647,329.3989282782602
-1077.9114172525788,458.0534637210465,371.00946806503754
-1189.2542305476386,420.39942284062346,389.0920956697752
-1309.0606884104157,390.3381888820342,383.47447905247975
-1389.7406351812292,367.8534463858708,394.11521773490443
-1454.7271494343127,345.31771807905864,412.8412862700311
-1518.7959190957158,338.463185695421,455.0758923791509
-1562.03188652598,339.572636935141,540.7657049043252
-1614.70022892629,328.7248958614818,579.259991944242
-1633.0143321113735,309.8030418134634,610.445972885746
-1670.9987610448015,271.61874850229185,633.5537619880388
-1754.8500252379763,268.64423630903525,659.7798432696181
-1773.867732610015,284.30197875931134,663.3672049068746
-1766.1688752020314,303.55218142790864,659.4922832975584
-1716.5596814406554,291.4563077095645,648.5028016702952
-1647.6370626054772,267.639815839252,641.7665563673631
-1533.3166779685216,220.0833108146003,616.1665808405521
-1446.1513360831682,184.27291684724142,582.2712139211659
-1312.9967929925103,171.2144310238461,537.2150530507361
-1206.008167926866,158.56994998291978,515.3125685121831
-1091.9223180188956,172.74196591088702,469.87809292673853
-997.2814365762009,183.15938674266954,420.24034711139893
-906.9804673359405,201.2073439961659,354.81331545430913
-842.2631581630833,242.98409752565863,324.24528253786974
-786.0716962469346,303.9243778456456,266.01132904712625
-725.2089143591339,365.04004935426474,231.39604248137744
-710.2048100013767,422.7457898466857,207.8783274614675
-690.0664345112756,469.1591929965891,223.7216582625056
-675.5528136519607,495.8472057226474,192.4520605915374
-652.6775198462268,518.7785839200951,180.94354341186852
-657.6221237629568,518.5348717451934,149.47306164694368
-619.0330031152331,525.9747212350803,150.0257478343777
-596.7573024427303,521.7225046269624,126.82618427291688
-589.2695262908334,529.3316270082037,119.06410445972888
-562.0767540393509,521.4543192629492,127.34725925774859
-554.314674226163,509.82241642150996,131.42714382587326
-543.1090127617484,517.3683163975466,119.79524098443405
-539.3381022061561,525.0416809002055,115.9019644832843
-547.5080685045352,536.570592404134,100.04170639311081
-565.2490911779253,560.273895774806,138.9424523155206
-583.3714877149689,568.4336649110554,170.0407376627085
-621.2243732569227,568.9027343690252,189.09515481841404
-641.0904845181586,541.8669984143414,177.1145090321364
-680.0885113672865,534.3251773031566,164.78206115238132
-717.7231776396629,527.1239414071065,191.71480576955435
-771.4265319961455,562.3592154303458,190.79196259680933
-846.5612620007853,605.9214920487628,236.61495005939847
-892.2302723152148,648.9025304257825,243.63467646953856
-963.2657431436833,707.9430794409916,293.3917290817966
-992.8670850902196,727.7989935400979,324.27791345668504
-1057.2621639397757,732.4468600388512,354.6950283736037
-1148.3738075693536,733.5032860354963,392.5723871046688
-1220.0904488280912,715.135137891125,438.6554022015673
-1216.2155272187752,661.0463308061367,450.6707183390863
-1201.531613751893,595.0900664345114,443.26349976801464
-1194.9136555296661,556.1379268149675,419.9466688420613
-1286.718706184069,557.0230404878323,438.19143132466235
-1381.7460600714824,608.3004899736404,464.0667302289773
-1401.26342838788,713.6524705174551,545.8367536314644
-1425.8691806070374,760.7990496244896,604.1777773245706
-1504.968567247735,808.2240112576671,646.0044969484993
-1572.0149082510338,828.6509664360409,707.7248601714143
-1610.356237859004,817.4106346203852,715.0372451346791
-1609.0713954306518,748.2188107049808,766.3106157556354
-1565.3663585424179,658.4022066658849,712.3237802919448
-1491.161609724014,579.8504076315562,646.9813850805322
-1447.3138125659632,547.9965125705517,584.9520478450847
-1402.5176793298426,555.0009432374972,542.4278423314792
-1423.4728475065392,566.3106157556352,491.05657895407717
-1458.2145788826972,578.150540704522,486.57084733318726
-1546.9196922496471,547.9200338545784,489.26901643272686
-1648.9117078716997,505.76088674521884,444.71251650665624
-1757.7358221207041,432.98578005741,431.55409849438905
-1767.025436820933,343.824853543259,404.2440588784142
-1723.6467091208517,265.51268781898,338.4387125063095
-1687.1000800477227,214.51056171067594,292.0630388562863
-1660.9647535090985,210.22877333238165,268.9215991189652
-1634.5948922414896,202.14650262831856,253.64523053234288
-1576.6546170200836,221.04388348722551,254.44876690816946
-1473.408350456068,204.5938215394656,236.42834199242353
-1326.3448782203914,157.27796954107674,266.26319895173174
-1196.086329174591,86.56095608592129,260.60377396970426
-1086.8747227646547,34.85736719470972,199.61964585255924
-988.7545696032795,-8.916959410196142,150.21745448241757
-866.0449796821546,40.184772577791605,124.417614577863
-778.1535998531609,128.13855903901947,86.19090107223161
-712.0474371982278,232.05477915496118,82.90588529212322
-693.5711991352807,274.18843335899624,51.64352760626718
-667.6061652042237,266.0031713174224,24.587805213809002
-613.6305466188761,269.4549106983527,25.38461146262995
-595.9170562832364,241.88280401564245,-13.503184063875027
-569.0516129361199,226.19956866004193,-13.04788077478038
-534.0702482499122,229.8695273105495,-4.687054192818139
-519.5025824313094,225.67645424278427,-28.002426924586892
-504.36081638480016,225.4888264595963,-35.62419378686912
-492.173168207288,217.83279713255806,-15.792752876874369
-484.547730366639,206.16724365609053,-15.639183615199892
-469.5150739549184,190.50542234096253,-23.210372553318415
-450.16595881366226,182.6536075010325,-18.96947479516451
-442.67716294555225,170.95338367332374,-22.742424783182845
-419.25632096587526,174.71205763436038,-14.555021337561758
-407.7233305970949,190.06286550453012,-18.35866478359073
-404.0615296762911,182.26203647524895,-22.20207716192584
-415.59452004507153,186.2195550978163,-22.38827734241561
-415.3487684377438,201.72841898099762,-18.512234045265206
-410.35011956172605,209.70973777997588,12.932652842713873
-407.7518826510582,205.5034084014419,-22.335761957447247
-412.4507349604606,220.76957982593447,-49.929996481979074
-437.32467254363115,229.22812581258637,8.538134837074843
-452.22068698281277,244.9246174789556,20.035894010696826
-488.76629633972874,295.9257238710467,66.41187357558393
-556.5203203948342,331.6219096225521,104.52295126266361
-619.1400733175958,394.643430733227,174.01559146089645
-684.8485466494676,430.8525337398603,271.02425395012574
-776.0774576435379,455.0524389062524,300.97331912528745
-859.8991500665365,475.2560762339841,323.19701427092843
-974.7130773505734,491.7948534922732,341.0451071466811
-1082.46954872459,473.3522660643544,347.34185476181983
-1205.233183605003,455.13197677086475,365.1879082051465
-1313.108961775938,401.9058496020558,375.5257911723168
-1393.5951624662857,367.8830181560472,394.0581136269777
-1461.9467402221965,357.0862628930369,424.4670708141925
-1561.481239770972,334.85237058526616,446.5989915006654
-1671.3250702329544,316.88497091259507,503.8835891971265
-1786.0227498687118,329.58961521008706,525.6698260873999
-1910.5708881218359,335.08996446289,598.3541780322537
-2017.019063594602,347.87108747635534,635.9623316830927
-2084.1265875706795,360.56043603065274,697.7081878113322
-2130.849984449328,368.5183013567325,681.2836187688968
-2126.8119082459352,356.95064063671083,689.2323066490596
-2082.0361693340747,321.46757557371785,654.7006368127751
-1994.881024610851,266.34681568119595,624.7954194347714
-1841.179199828688,222.5663197932016,623.3209097908052
-1701.141572300429,189.93438126169488,558.8095832929697
-1535.9271514737452,176.946255856995,549.5546389439819
-1383.2042542560407,167.67601576481266,512.6276557234123
-1257.5956111414196,158.58014714504955,471.3689180301123
-1134.8829620716556,169.06384953067564,453.54835749211003
-1055.1411542167816,214.48710823777748,411.41878215292684
-957.5665492293497,228.50412730137205,334.34047304635124
-899.7659751291216,266.67720373420076,327.2279524608302
-858.8508817995952,289.1517490682343,280.66974960868396
-820.5085324754123,339.01077330179015,265.37808527886693
-779.5118618488476,392.40005506467554,214.79200338545786
-752.6209255964067,438.51468136417645,203.26513131395535
-717.7762028827377,461.4582961561798,203.70972758281374
-672.5721831614262,507.184410578536,164.9860043949769
-625.7580315398226,530.1423013975211,177.38371411236255
-615.1805152626025,564.5638418828041,142.10459229196516
-585.4710833974906,560.1831410318509,111.1674221064278
-566.5859391331393,583.1104403644466,95.67436382454764
-546.7463404934407,606.2763532908792,107.66775606348754
-516.3557381980595,621.3763109726564,92.3730325850316
-496.2979202887837,656.1822844702319,108.25409288594985
-487.6374704919622,675.6721204488791,131.86664151366676
-498.406693417222,672.0980151223915,155.2650497366583
-498.07936451285616,660.5945965237876,167.08254092885952
-501.4138365292939,656.8920069544647,182.74334252777456
-532.0777227697532,622.4143820774678,194.1743612752571
-559.023723697695,587.8725150790535,201.73657671070143
-599.9938817027222,576.9697093298936,244.3301229267895
-653.8879229910317,585.1233601688651,243.49497534836058
-714.3978830691419,612.9208241346433,269.96782795348054
-798.0023759387764,644.7645220335182,296.0807207354194
-881.9607103343141,645.6241428010585,318.36763828626493
-942.579780047213,657.9463935186839,344.8904569858209
-1014.8409497636809,658.7509496107234,371.27765342905076
-1103.3635339285079,655.6010462288345,373.88710721806126
-1148.404399055743,652.3970978876579,408.5442021485421
-1198.574436734257,621.8678141873118,411.82055034084016
-1183.0849474591223,575.426878699658,423.9827056130279
-1152.5240525561737,517.1919054927015,428.5622511255118
-1184.716493399887,478.46920202107754,396.81338683444403
-1257.6363997899387,482.97226881758814,403.55473071844114
-1314.0471006918776,506.9386589712084,437.9507782983996
-1304.7268945052592,542.0393304543346,477.2180102277536
-1333.1259910366946,596.9530879556221,535.4764369076087
-1427.6944726282677,656.0690959705914,573.1070243151331
-1549.10188494542,696.1194699515125,618.2488413474531
-1594.8463542596098,688.8754059745173,633.2865963402386
-1545.7572157668521,641.8930011777722,614.5574686564729
-1531.3792171638634,552.691286015102,603.2998016651967
-1498.7686926728295,528.7320338749727,548.9244543243616
-1492.0793543156942,501.38630419154356,525.5688741823151
-1516.6953036969812,501.1884792462258,482.0300510367965
-1582.5077880825768,497.75713418955513,473.20644664589855
-1652.307362860916,494.32171026803246,460.3988110108957
-1714.2551227993251,471.5514472322353,455.6234799855201
-1745.7949452667324,448.4395792650906,439.5303187123024
-1735.516205839915,420.9959568252156,408.38002783825266
-1740.6249840669345,378.23007856913426,380.97515461447085
-1777.5693024631246,327.7255739727634,325.6473923307144
-1800.798437794762,331.7391769870445,321.36152508756817
-1825.3022183926214,327.7072190809298,281.7618656727833
-1763.048543590319,335.10526020608467,298.36794420112886
-1652.7458408324965,322.29354570623,260.81689465821665
-1560.9407901780937,302.0990858244151,246.56228171699817
-1434.2716422019755,231.47965921084165,248.69756746697394
-1290.104164011156,160.26777747752803,200.07749843218633
-1133.608316805433,62.12447675811823,179.20492726874113
-1038.5503714316305,34.025788623026216,149.32622251227485
-938.9893592613176,79.43742256530008,123.19191568986352
-892.9399947994474,167.85548581829678,100.03599598231813
-820.2168936385006,232.81956631469467,73.43384336139253
-797.832083331209,244.04154323851674,50.183497932525384
-736.5593755257913,247.33216745779652,39.3163822508196
-687.9362473423647,231.12785711736424,0.8531751413581602
-653.7461824374277,238.46063640488853,-14.357910193593126
-615.9208292332245,234.12378335109344,-33.39978483987907
-585.8290037882458,225.97727052561274,-52.54465082367578
-566.4523563092391,221.99323928150798,-48.3163975465628
-555.5189590736899,210.16147206232506,-63.81118934600502
-543.4139079094289,210.20837900812208,-47.931454676163625
-528.4363161732091,206.11829727786758,-59.46719827871904
-497.55319094695955,194.30896381537022,-55.04020231169666
-473.83255240066694,202.00374235850165,-39.01230287610958
-469.86993519703475,198.14003762752827,-35.0153212361
-454.4834372594107,194.1519275185716,-34.77140511795567
-450.683974649855,186.38474912431872,-34.688298246597974
-431.4990338188883,193.9398265462722,-38.3510169119934
-447.18532832312775,193.98979264070812,-46.435327048482414
-428.57346800385454,197.53942477808428,-65.79168217485075
-451.03883589197136,194.01936441088446,-46.49324692937956
-446.7223771624357,221.13973681124546,-38.670799916383274
-470.00759688578677,236.72507941040013,-46.921425767208994
-481.5140746330297,263.8607475539558,-51.10991011201583
-507.3159539700102,314.5671559604962,-28.11979626070065
-513.7422055441972,341.9822263464078,3.0884756772190305
-530.9652123813944,381.26271458653065,53.71803826994948
-549.5780924168805,397.02344837431747,69.08454976979907
-554.5318737795272,440.25431722351675,139.5073750975104
-610.2073592919091,472.12962632499386,193.5105260206085
-696.1378248433463,508.24797458867204,262.7451780169579
-798.4632876670424,521.0678468182306,308.26429004807966
-876.4685188112148,549.4577659037491,385.4924974379631
-982.4568022719279,570.0794868788016,434.85593959201157
-1066.0317233713859,567.1732956718147,468.93485542973394
-1137.7993504407725,560.3768871123167,511.05321389057434
-1210.770242641473,518.5236548668506,525.8003497626611
-1287.7078309106578,461.2247811434078,540.5393279050442
-1391.9942080119106,427.2090877108901,539.0923505988284
-1525.393482993683,424.7587096511042,580.273589859942
-1643.4052403216185,437.6295676913116,617.7083917545748
-1776.5801777365361,446.81823048645566,662.7778089357732
-1886.311839415091,463.6353902708877,716.0222909964158
-1977.596834800875,441.4789963953033,753.9761284434543
-2011.6757506385973,430.31208414698193,773.1263989231797
-2012.1142286101779,349.1029046616327,777.3184522747321
-1940.3160100544019,282.5297119811557,751.1453962362276
-1830.360010808992,238.73392034996664,709.7693911784352
-1697.6745371763038,179.21716386329686,660.938240887561
-1546.093722117135,142.62668699300986,596.6135224567004
-1382.5210443933454,129.22863567069288,540.2395313384285
-1237.9252853930752,119.91556749756543,491.4165387772583
-1127.612385473123,126.41421892287379,449.87635940917653
-1044.6176828988494,125.31496484528357,400.10299133751084
-971.6967567925848,120.81189804877305,393.36164745351374
-925.9737015188674,124.18715871372997,378.33612905528395
-881.2051006204973,146.63213227758717,331.83605002727745
-838.5177405128154,188.86062008942915,332.3326518229977
-817.9072364161054,257.56603937124305,246.0687390699169
-787.8990277005911,295.7421749527107,214.99186776320155
-772.241285250315,388.3691168747738,203.13970621975906
-745.5685682674513,461.4613553048187,179.74537686161943
-733.2738498875764,527.2095975689966,187.55742276924335
-683.6983067612284,588.4823053744144,160.6205992872184
-656.9429927651136,634.562261322674,145.16781979575086
-635.3494822390929,649.4480785997257,98.34520452957943
-604.7681930118848,672.3192935406078,86.95222119684092
-601.159417334156,676.0902040962002,79.14435612569022
-562.2990521737801,702.9077207813066,83.56054310085504
-551.7480485180974,733.4604579545513,48.29396378987729
-550.9567487368266,729.7976373175346,71.86592771231767
-546.2038514681365,741.5784187260687,95.4450296482489
-567.388455792753,765.4142852044276,146.0672094955974
-597.9432323984236,746.411873575584,157.44724243243107
-620.2729780302143,723.6171373506754,184.662448440599
-652.9355080481103,701.2200904488282,247.0425680533108
-689.9420291332923,667.1432140435318,297.623551365655
-747.0073878439631,656.1884027675098,320.353025752933
-811.5350298012064,660.8026186312351,346.84321353367363
-877.4800772944891,657.337622939536,334.0937017228106
-949.413918106591,646.6387604329716,372.29838935824165
-964.4730871398491,677.7421443612243,375.89288900898885
-1018.858631642814,674.1874136427832,363.3157092381191
-1033.8086910412833,682.146298685076,374.83952216098265
-1045.800553705904,678.2642390622691,362.89864530701107
-1046.1064685697972,674.3271147639613,355.05804734542386
-1076.7183492833944,647.586076794828,366.46357318758197
-1177.1501990995907,632.8511775172971,361.08457016412336
-1278.1530899950544,633.4191594479257,336.0219850815518
-1308.1939296293845,649.3032788974829,355.14166407488796
-1292.1537935992415,660.9270240092184,371.0410792676399
-1302.3203642426315,684.5365134882962,406.13053387242337
-1328.9757460498745,750.4795215491529,401.58463899496775
-1393.686936925454,747.3214604375603,424.17339254485483
-1446.028970137611,763.5889931831972,466.5048716942075
-1488.4491645974927,740.7381725665748,469.87095491324766
-1468.656472903591,717.5488061672437,489.8696292821708
-1465.291409400764,667.1911407055418,486.16500028042196
-1435.9133853048697,635.6951660352925,451.3896182692357
-1456.185343618871,627.8668046682609,423.64008096546735
-1491.7428479654113,620.192420449389,399.58599521753104
-1527.239169339173,600.9452769294306,379.4955463894399
-1615.9544798682527,570.7147700794869,382.1937154889795
-1670.0402278046024,551.7867977341906,381.4472832210796
-1729.041007887505,517.1755900332938,353.2072624188689
-1780.2715504275163,451.6231332820077,333.0382954423784
-1785.0234279799934,401.2226397393606,317.4386768162421
-1747.3653082347184,335.05427439543575,306.4522543376179
-1706.964151876533,303.3329424421184,256.14455497035175
-1627.1611610488803,279.2554032212836,229.9480454589488
-1538.884328491381,266.89644271999106,223.46367006062215
-1443.479679605166,250.47289339376857,201.4000703604187
-1327.9050440262477,245.71183839537457,203.14786394946287
-1255.1177007438832,221.86577475488573,196.46872275445747
-1192.6702798611148,217.72572693019535,220.96536533882622
-1128.4689470920243,185.99623724717415,190.63798544864966
-1086.1915129019594,189.5040610198182,187.33410491860118
-1016.8049231898765,192.8364936038301,188.36299857749592
-983.7599995921136,192.15838232219977,141.76400707683055
-931.0396516649419,210.74373001993547,103.24524684780226
-870.3930496142925,202.29028261434846,76.70988563882672
-832.2668801272606,182.58120764991105,69.49814666578293
-782.908536554277,193.59516246628564,46.652628573468014
-730.378875558932,204.40823318870363,4.232189381695075
-684.0552074357707,215.6577424502761,4.888121835693127
-653.4188535330618,226.95721780628455,-2.540327226932745
-626.9082714280617,218.90859773724975,-13.889962423457554
-592.8813611172012,222.3389230777075,-33.014943941101194
-573.1508721122912,230.02962275598702,-20.971483636104075
-565.8527631760082,229.86748787812357,-32.635507538252114
-554.0199762406123,229.847093553864,-24.608913339417644
-546.3129611029251,229.78795001351125,-24.493277520865945
-554.5104597390547,218.1387119964514,-36.3506396169946
-546.3945383999634,237.49088628634655,-28.44508573264061
-569.5431161507753,233.80053331157944,-28.779348707254776
-554.402369820479,252.92225173734153,-40.390959196055746
-569.324896881198,264.7499400916725,-28.880504555582185
-600.4252216608119,264.9202326992399,-37.19618830079589
-592.2552553624328,272.7006674042614,-25.32618172362632
-603.3793395298089,276.7611773643396,-13.73262021179506
-607.4785987059802,280.59123146028463,-21.656223073118756
-613.6040339973387,292.63306021934096,21.382225326691586
-604.4796133236122,319.96247444336245,56.748328940055984
-591.7464169721567,331.75345301402626,88.29620716554584
-621.5659781882703,359.2776330347265,111.30406407896685
-708.341788480266,391.3222150275579,156.99142928522994
-772.2147726287775,430.8576323209251,195.14819025865106
-821.4109813238975,462.3648238695172,213.92830375306553
-870.6612349783057,486.1354285102457,232.73289043659153
-903.2707397531268,529.4030071431122,283.1191079522569
-971.0247638082324,565.0991928946175,321.229981696094
-1033.829085365543,581.7297446120745,394.8004670300256
-1070.049405250519,582.6097597038745,460.97393095501525
-1122.065129274523,548.7541617167942,523.1021806631215
-1163.414621710778,522.3088414494247,557.8938781337155
-1213.0748012828033,488.0484161257923,576.8891517490683
-1278.9382714790474,457.57011823609497,572.0801700886644
-1344.0369545155586,458.1788888152428,582.8769253516747
-1459.0609433394688,463.0765857861757,596.8358205911296
-1593.632891966166,468.05484033793397,602.6522818699557
-1662.422947693657,472.5966563505377,617.3056038504485
-1720.9852498049793,422.6468773740269,604.8232576873856
-1724.4624820912343,360.98157882661263,628.5265610580576
-1713.0620548301408,299.06135122595384,636.7556708967895
-1670.703043343038,275.5558728005996,641.394359949626
-1571.3826841989876,266.84035832827726,619.363391168238
-1441.5116273141186,238.50754335068555,593.9316688165685
-1310.4882911085847,218.18663865846136,599.8878312165725
-1199.6655330821434,182.3344363263704,582.0458566380977
-1077.5851080644259,200.38341329607974,544.5672069463069
-1010.4051842372269,199.30047467789717,482.7836213181872
-941.4529936318723,237.2808247464731,464.06469079655136
-899.9923521284028,279.2023779782087,429.22302723152154
-858.7509496107234,328.79219713153833,386.50201648881125
-809.6383576450675,362.9159804826317,351.80107376117235
-787.2280544324515,397.31610692744215,324.54915796933716
-748.4757791906513,447.27812249850876,321.0362356156282
-725.3832858315532,481.8495612670994,313.41589635604413
-698.7911264295147,524.0260435520795,294.0494460391674
-671.3546420031306,550.9669458989564,302.2183926213335
-633.5558014204647,562.070635742073,279.1993188295698
-615.0795633575176,565.5855975282079,255.91613853864473
-572.9377514237788,569.0577312333978,248.6863505886312
-557.1963922440385,596.0547179719885,252.7560379946261
-552.879933514503,623.1740706561365,260.57828106437984
-541.237833510934,634.6907455655092,260.71390332070587
-559.6335139930558,662.0915399244391,279.96920457036805
-559.579469033768,669.8291465485156,279.9437116650436
-585.4629256677867,689.6208185262043,306.9621124441068
-623.8062947081828,678.3804867105486,314.2744974073716
-649.3348901000852,651.9178312675583,361.07743215063255
-656.9052632652334,632.7022989502022,368.87724146370067
-710.744239878042,609.9748639953502,375.9969000627126
-768.218504790117,598.9180810980305,386.94763247388255
-829.2740130421705,607.2685371661067,401.7029260756732
-883.3312089245564,611.5197340580116,396.954107671835
-959.3643089128295,604.6509256473923,427.23560033242757
-1036.26620711456,589.839547653888,433.98306251370246
-1086.2526958747383,586.3918871378096,437.1706953954715
-1124.4920538614106,552.0080761524068,452.4123936308526
-1144.3561256902206,544.2816864066731,436.4426180194052
-1134.1589635604412,524.5410002396334,401.339907103853
-1176.2732431564295,505.6273039213188,412.5465882844805
-1261.409349777957,494.6082505238793,403.45989711063413
-1322.7860686370984,514.4621251905595,406.39769952022357
-1324.4889947127715,549.7891736729669,461.19724880565747
-1327.4359745682777,561.6301183380666,484.6609188662796
-1345.81126072614,554.2810235911347,511.8832628879384
-1373.027486450521,577.598874233301,499.6232148593047
-1403.7719302718056,570.1335318380895,503.11268374011513
-1419.2410252226807,543.2058858019814,506.8958308902633
-1415.7943844228153,523.7639764853442,499.16434256346463
-1416.1512850973577,512.08924556296,491.3492375072018
-1423.941916964509,519.8523450923609,487.2815895336328
-1447.5279529706884,531.4995436769948,471.19046769284114
-1463.7006521085184,558.4608403481312,443.384845997359
-1483.4321608296411,570.0784671625887,427.35184798070696
-1469.6048089816604,577.2868410721297,380.43878388644447
-1455.7162741609013,553.6131094716342,341.4805259696227
-1433.221334502608,522.3822610167591,330.148419694799
-1506.4675500808128,519.0794002029236,329.06344164419045
-1640.8457526270442,493.2102195958865,346.7606165204224
-1717.5590033293736,486.1711185776999,357.40849321633794
-1691.1789448996349,458.7784819484738,346.1222741710982
-1595.0095088536862,396.2035965390832,355.6239898436266
-1491.5083132364264,375.9540719817675,345.4686360785794
-1393.3606277373008,336.0484977030893,296.053188397669
-1313.5372425853886,315.8407815105057,269.84444229171027
-1202.2454151009774,307.137503632739,259.76658695884936
-1122.248678192859,290.832241387222,237.4725313945129
-1041.5993229084347,270.82948815344696,234.8233086731963
-961.9584669586455,262.1598609107086,200.72399851121435
-915.7979534295606,250.19655030005154,201.4561547521325
-874.527998857918,226.41778792961924,174.682485864184
-836.8658002477911,218.17746121254459,151.72663447762488
-782.9452463379442,233.2009401783484,148.55837620390247
-749.6270387951034,232.59114988298762,109.81323897559311
-706.6123497830555,244.0068728872755,126.11748150489721
-673.4583165505042,239.49462864484818,83.45887739442114
-634.4602897013763,247.03644975603294,95.79142724579751
-604.205309662321,242.7934105938318,80.56043603065267
-562.580493848562,230.6883594295708,61.60166825572444
-552.1926447869558,218.71995023784882,30.40069748588968
-536.7235498360807,207.0289038560569,34.59642181580866
-516.8839511963821,210.88547057353944,50.579147823160824
-483.347524383964,183.29704843142156,23.70218168283767
-452.1380899695615,198.60196907200728,31.967287503887672
-436.8872142882636,175.2708621190723,32.27442602723662
-414.5574686564729,178.75625213503082,9.049430743424107
-405.8154415626132,190.54213212462972,36.61301259859382
-430.217250539175,182.67502154150503,0.9524078049078942
-432.6523328557663,190.78482458331848,40.13480648335569
-444.62278147991424,210.08091448149983,24.191849408309672
-482.93963789877284,222.01873218683244,27.502256122121214
-513.8217434088094,253.13843157449284,19.085518500201395
-551.7021612885135,269.04702421316154,34.162838482050454
-566.9530369698114,292.3791508823095,33.8556999587015
-577.8323892460729,292.63917851661887,53.31504642258061
-623.1200256968486,331.85440491911106,72.12738294932521
-638.1791947301067,343.6474229222008,79.71131834010596
-689.9461079981443,363.92142066862795,137.7371477517807
-723.7558187556403,391.4415218244763,156.76097342109693
-810.5316290476361,423.4861038173077,202.44833862736004
-905.5049379757614,443.88144779307925,236.27844370911578
-972.9856780857888,460.33660832190407,286.2323015504785
-1053.6931571943528,453.29240872265257,292.8961470022893
-1133.4145707249675,450.3556260292761,327.0331866641514
-1194.6587264764219,431.6254786292975,341.87821529268405
-1266.0184670606172,405.6227151983603,399.76546527101516
-1352.928879892726,399.0139344220504,449.5062024238655
-1481.3825312415556,396.8072685371662,522.1579234499039
-1560.1556086941005,413.42048507900256,579.7912640912035
-1619.003431345057,445.49565855822334,653.3688874386258
-1671.6717737453669,453.95726369351416,687.87302493716
-1744.285765271525,443.0881085793824,706.4451163241271
-1814.1057343741238,416.47453513687145,697.6398668250628
-1837.7223618666926,404.9435842005171,685.5511311202093
-1839.2723305104191,338.9016636670015,654.3539333003625
-1798.8201883415848,276.2982262036476,612.0000203943243
-1734.455700978418,229.16286397495583,589.5754411547267
-1624.173392544855,193.17401967032578,556.0267777477528
-1523.9862746197734,153.78136264677542,565.5101385284476
-1398.071716641259,110.00392590741998,540.0712781632872
-1275.5528136519608,93.40569919391434,522.339432935814
-1211.1679319645343,88.75752678029706,491.9223180188954
-1153.910866605824,107.48420714515152,473.09427786247096
-1089.5769707290463,191.64546506707185,422.7539475763896
-1042.1499696634428,217.6206961602586,340.959450984791
-993.3127010752909,251.6761585250825,298.40567370100905
-950.6793859268965,305.47740563801096,294.9376188606711
-934.775891869293,355.68619253261824,298.93082755069264
-912.2014143463874,374.6794267155451,279.58273212564944
-862.5157418690379,412.80865535121575,260.5752219157409
-812.5863572167866,466.44776758628086,245.44365303136138
-779.7871852263517,488.87948483936924,186.98944083861463
-742.0168966976491,515.4226978631848,159.99347381623696
-700.4746778971413,549.6402951058722,129.1032105764966
-657.9514920997487,626.5850213885477,117.70686218025524
-638.7675709849949,672.7587912284012,106.06476217668624
-613.5479496056248,719.4495571882346,157.30448216261416
-582.8289986896648,742.3554424803579,149.83812005118978
-563.5889931831971,738.3377606012248,150.13995605023123
-533.0066842397762,703.2809369152566,150.71711542677673
-526.5804326655892,675.8668862455579,119.50870072858726
-507.23131752433306,648.7057251966778,127.73883028353211
-515.5379257952512,640.890620140415,111.94240642829102
-530.4879851937206,648.8495051827077,123.46519963494161
-568.0686065068093,668.6962418358971,146.38332152162056
-635.2220177124707,673.6479837661179,208.15467055518454
-691.7428479654113,682.1391606715852,242.60068422957895
-732.876160564515,686.6432471843087,277.29142979508805
-778.3544839471176,698.777870118746,296.19186980263396
-834.6010105387671,688.0280218015328,342.481887290767
-957.6389490804711,669.7394115217736,352.4740864617377
-1020.0017335175622,685.4848495663658,327.9386946612758
-1066.082709182035,670.4358776952374,335.14910800324276
-1100.9773979901395,678.3723289808447,326.7497055569435
-1097.5613486766636,674.3719822773323,315.04132399953096
-1079.1146823838926,654.7077748262659,295.7605298445443
-1048.3702385626082,642.8637710125273,296.2612105051165
-1091.2696996425896,627.6139150474424,283.8961317065461
-1199.0333090300971,647.7910397536367,282.2135999551325
-1247.7655468483122,667.8284633386529,316.73813177792624
-1242.9015005124077,695.0854777115529,340.26604395996594
-1257.0347672242815,722.5586719216044,371.359230726089
-1310.5494740813633,746.2568767112114,378.32695160936714
-1383.3878031743768,762.3653337276237,385.03056599348406
-1416.6713403659762,766.8439273350227,423.7624469110247
-1447.038489188459,755.6127729652839,439.04493379492493
-1422.4225398071717,736.5002319854385,486.5728867656132
-1418.486435225077,728.7677239424269,490.58241091504243
-1426.5116018212134,721.0209398724336,482.63984133215735
-1438.6462247556506,717.1052296145983,466.77203734200776
-1466.6578291261542,705.4682281920942,438.91950870072867
-1543.8401492864539,690.5875094961074,437.8141363258606
-1621.726073633708,671.6687145967278,417.08840429708414
-1673.8131777926205,621.3518377835449,369.3820009891248
-1698.3985356875182,547.7844115982523,341.789499982155
-1715.2544446880438,478.02766490085816,314.299990312696
-1765.730397230451,404.94256448430406,317.7150199099591
-1789.5305736413557,347.02166387094474,309.7051490570175
-1785.839200950376,285.1605798106387,317.8180112474699
-1736.3217816481674,242.1499696634427,310.85538894525655
-1678.7078156149144,195.31338428515346,315.80101257819956
-1612.7321766352427,144.71914466204058,340.50771670244177
-1529.4315591970756,108.93832246485803,306.5552456751286
-1436.922904355718,73.47371426531997,315.9091024967752
-1303.0545599159757,45.14599786879312,294.4624311054234
-1196.443229849133,55.576878954586945,256.77779873861107
-1119.4546557692995,43.37566855144214,257.97188642400823
-1055.447069080675,61.80296023616628,211.77364339504317
-1002.6431044240389,72.68465785971765,177.2062834913044
-952.0855745845931,99.44731381256598,185.72295330209604
-922.3496300979438,137.55461854965765,146.7932474392377
-895.4301417915394,168.22768223603373,139.2432685983491
-849.6805738962848,194.780072705766,120.21638378039393
-815.6271509638868,221.38854756721207,97.08881218356932
-796.2505034848803,217.40553603932025,101.31716743230359
-756.1256902204118,204.92420959247045,39.16638199589055
-712.7286076284971,212.57412062223085,67.2629287269353
-686.0813835509579,204.56017090443734,59.83990455456248
-679.3828677479058,196.52378742995828,32.494990644103744
-663.5058863118395,184.93471266946412,48.47037469472246
-636.9677718690889,180.75591562868055,37.10818679161589
-625.7070457291737,176.72905630363073,29.44114452947745
-617.700234024871,180.60703706158577,37.397276337995145
-614.283164995182,176.6056706418604,25.68807900761219
-629.4239113254781,176.79329842504833,33.30984586989441
-614.3106973329324,172.73686732982213,25.70072348865311
-580.556051250937,176.09887168401036,-1.2773475141868018
-579.3833776060122,168.66921935625317,34.0868696241836
-568.7232643155411,176.07745764353783,6.749216093161274
-564.5424278423316,183.8538134837075,14.634865117037931
-552.7922379201868,210.84570164123326,14.719807477578993
-560.4717207201236,214.77364849362425,14.591527177986368
-547.4937924775536,242.07349094746937,50.01534672900532
-534.5433965727339,265.50453008927616,85.45191273268651
-529.7904993040438,315.90502363192326,101.05153135882286
-540.1253231225751,354.9203856566718,128.2374715116783
-572.7338081811832,378.8796377968012,182.61281885251339
-613.9497177935381,391.08666058235997,213.35114437652004
-686.0477329159296,395.79469033767907,243.65201164515915
-765.5794792309301,400.6301846196204,281.6915052540878
-810.53978677734,428.34199242350854,312.32072114330583
-833.4976775963249,451.7332626330093,311.89855863113297
-866.951507395492,471.61772878607894,342.72661918188174
-921.9182901398541,507.53213380716153,416.35012975888816
-1025.7223414723683,567.3201348064835,520.5579887117416
-1108.431523507008,591.6658593913315,574.1818052036119
-1201.6845711838396,604.7681930118848,659.0823573799413
-1284.1184298409755,609.8728923740524,724.5491579693372
-1362.860915807131,591.7362198100269,790.1495413826333
-1405.9847144539676,545.5359373486359,777.8854144891477
-1507.3649003482333,472.6333661342049,756.9893898528042
-1576.6342226958238,364.0621415060189,669.9770053993974
-1637.6846323668124,251.69961199798098,598.7977545848992
-1685.4175482963094,135.8241601362341,578.8510857428379
-1686.3250957258595,46.77509649064665,571.2888703073935
-1694.4114452947745,-7.327527749027447,571.3500532801722
-1690.0368627410992,-49.70800426241377,595.106381893919
-1631.3012088735707,-73.09305420301531,627.4619773317087
-1530.757190273947,-81.50153212361,640.7702936272836
-1441.1445294774467,-97.38718114748666,673.5633473204408
-1360.5257656794115,-63.33039315158592,658.956932285745
-1295.0701819683584,-13.645536447206743,647.9960027124451
-1241.6982353810936,39.86060479368592,621.1427959598844
-1169.4921303401266,127.86527509394136,574.8323841474918
-1089.6381537018249,208.07309325814632,528.6616734562772
-1053.917494761208,253.41375495199688,438.77776814712473
-970.5567140664755,341.22661663259123,380.86094639861733
-932.8139578755232,421.8300846874315,341.9088067790734
-893.7904381210711,491.16976745371767,342.25856944012486
-878.0235860360062,579.9625764149838,334.34659134362914
-842.7985091748967,657.0694375755228,334.61375699142934
-785.3252639790347,706.7459326069555,315.6837452137071
-743.1559197075454,733.3972355493466,304.4515711277552
-689.8900236064304,771.4275517123585,277.64935018584333
-636.4874855327763,809.4935579428246,254.77303666389648
-594.9727990700189,839.8423518734736,223.89602973492478
-548.3768667179925,851.1591624051028,232.40454181601265
-474.69829146548517,877.7441837936503,241.26791513921677
-474.4250075204071,858.5031585709698,253.11089923674245
-439.47117517194965,858.3032941932262,261.48378906150424
-435.42698067127924,846.7356334732045,269.4324769416672
-454.36515017870533,777.4530548148451,292.93081735353053
-446.6030703655173,746.5118057644559,301.00085146303786
-492.1354387074078,712.2901296569165,327.9060637424605
-531.3241524883625,696.9760315704141,311.6721816318519
-585.4078609922859,678.0490789413308,310.926769080165
-646.0269307051848,651.7516175248429,345.42886714627326
-693.6313623918464,651.7669132680376,305.4692479083071
-759.1399713459745,632.9633463007247,308.476391020379
-827.7933851009265,637.5388129483565,327.05562042083693
-920.2500344154224,661.4307638184293,321.6654005190356
-998.0278688441008,677.2955086599401,296.89853313822766
-1025.0289344475434,654.3253812463992,300.4960919376138
-1049.3185746406778,642.6241377024775,268.7747599842964
-1046.014694110629,603.839231541862,261.1064940627024
-1047.870577618249,591.7882253368889,210.0992693733334
-1072.4661326752766,614.7685499125594,162.55806009187646
-1160.5186276659208,658.077936910158,168.94148358511828
-1225.1278469202023,728.3231276735685,179.5108421326345
-1297.4767122309863,756.1399662473934,197.95648870919226
-1382.0009891247266,830.2325462823698,188.59141500920296
-1473.9691943732062,865.8338984260682,194.94322729984248
-1589.329689547399,882.2350139956052,197.08361163088315
-1669.1020888886626,890.8709906033151,227.25701437290004
-1688.9457663932128,887.0144238858326,211.27398245068397
-1677.953225617311,824.9912049476633,207.72333059709484
-1718.18103021929,759.212371197096,172.02102654831162
-1746.2232260761832,685.7785278357034,156.15016340952315
-1755.9105300994736,615.8249759092046,113.07021255984462
-1737.2497234019775,569.1831563275941,105.65789540770804
-1731.4781296365225,526.1572504372034,58.7943895213962
-1736.2504015132592,471.8879535825181,43.20741537630078
-1760.7949707596376,425.3684999464649,11.59988375235172
-1799.6257641498373,363.8000744392836,15.150433634319572
-1796.6685871322013,332.6497835652338,-4.323280631000393
-1774.4999566620613,312.9223537089628,-27.472378437080962
-1742.9091483840048,285.842769957121,0.5644985800451735
-1681.1755288503211,277.663626212825,5.44148103582773
-1588.034649956917,273.2513141592695,26.47458612268206
-1521.1616607098247,273.08815956519305,66.7229889921635
-1448.2213599955135,272.45389608072077,59.96859274064029
-1371.130814294382,275.7271851243799,61.11230644511633
-1291.1340773862635,259.4229425950758,38.81784299429469
-1198.9721260573183,250.90219391943228,32.377825251232586
-1150.708957697073,223.02417237282867,-13.900567472072524
-1069.8658563321828,210.79267639815842,-12.648355962535627
-1008.9459703364555,221.71791590400397,-35.320420327022994
-970.1661627569049,217.61967644404564,-26.87655825383796
-846.4460340687189,236.07959904758508,-17.23636511958722
-812.1468595289931,220.26889916536228,-24.5184645113265
-744.3938551901007,242.5007520407071,-74.59866519147722
-701.2149918677633,238.50958278311148,-50.3907042670025
-658.8264086104838,238.1822538787456,-49.75460529334687
-640.7866090866912,218.4170945225944,-80.81475325416937
-629.7716345541037,237.50006373226333,-100.33722015163181
-602.9887882202383,248.8291108584481,-107.82377264407317
-599.4901418935111,256.4341543748375,-119.5709034175789
-596.1821824986107,275.5772868410722,-139.20859824710786
-610.9150423437159,295.1772521707209,-123.79660740415943
-623.0476258457272,310.5698684056228,-143.65354121947863
-664.454222389909,315.00563393207676,-116.81664992632552
-676.2064517444795,326.6324381924511,-124.88158545476794
-695.3373476161585,326.8149673945741,-121.2432380068627
-717.9118251390639,327.1310794205973,-105.88427240698915
-752.047845084713,327.53488704093655,-90.69865856332183
-775.3595774296014,339.25142632805296,-98.93663993310663
-802.2800854522187,347.197055059577,-99.36665426011942
-824.0918152478167,359.2898696292822,-64.4126179684194
-857.3274257774062,371.5060698607578,-25.705414183232808
-871.4066475299925,406.71687069488564,5.3618513967562835
-862.4729137880928,426.2750276598023,36.82664314521269
-870.4063059250611,438.85934544416295,138.7058781541097
-926.2989909908074,439.78524776554696,192.80998098229264
-973.4221166249434,456.36481367235507,274.46477645271324
-1005.5125858473588,476.5919044729852,344.55904921660306
-1048.971871128265,485.3706413505122,422.37155399652283
-1081.827127510414,532.4397220253604,464.89066092906353
-1094.4104255785617,568.026798142077,539.1504744229682
-1100.2330051546655,603.3150974083914,586.0390653281192
-1067.877409716876,607.3225821253945,629.6818995273616
-1041.171042098984,587.7358731065145,626.2230221329404
-1030.1071211881736,556.6284103134099,618.6444912380886
-998.5142734776913,529.548826561568,646.6815885139166
-1035.0833363075058,518.7530910147707,705.0389276664305
-1019.2338872091898,464.67754024055114,729.0063375362638
-1032.156750776259,329.2582074408692,717.4957809241689
-1057.3947270474628,201.4612533331974,682.2278759821143
-1094.8896921986611,92.89196616581606,623.1628537777937
-1161.619921175937,-22.76649008580912,610.7794200873898
-1186.6233627181557,-96.43568394915695,571.4071573880989
-1221.9259380114515,-165.83950686523943,567.1885914150092
-1222.4765847664596,-185.2854950467285,555.4720521278929
-1207.5275450842032,-116.00699525322104,527.9896804719248
-1222.4459932800703,-46.250758413933404,527.5308081760846
-1190.7532133807163,19.382153946556674,539.5583609081593
-1158.3670264565374,123.80476513386326,563.2382108059328
-1121.371722249698,201.35622256326067,614.5513503591951
-1070.1105882232976,270.777482626585,634.7080807411298
-1039.1723983215472,324.63277469880137,627.1407667246206
-985.3884863842395,416.86100758159006,604.0870225816157
-958.9880336302408,470.5745591002025,576.8289884925026
-940.7300148368711,501.06815273309445,541.6783509149404
-906.9508955657641,566.226999026171,502.7180535656927
-854.47629924592,627.2305017513627,448.35392310320043
-809.4354341186848,669.0531425104394,405.7165290899543
-782.5159458122806,699.7262061968155,398.1665502490657
-759.4499650747198,691.8101492354679,398.53874666680264
-740.6739304451572,699.2622353199106,383.0971840536779
-706.3737361892186,664.1421892287377,379.8045204019722
-690.9586861976313,625.4041900139192,388.0152753488705
-683.2781836814814,602.1658772363652,392.13288941687534
-664.038178175014,578.8398688644951,396.42487495729944
-642.4171353112429,558.9747773194721,357.56960837798846
