acc_x[mg],acc_y[mg],acc_z[mg]
-467.42465571831366,414.2709284006262,768.8395119638205
-479.28395527524697,410.4235391290604,760.8255622460271
-479.2299103159591,398.8517995441869,764.7902188820851
-471.71358211009886,391.0203790285164,761.0040125832982
-498.6340901327161,418.27535396899054,756.5845625162518
-502.56917499859793,426.00786201200214,752.5750383668226
-484.0103399223997,421.81988752530174,733.2442781174
-485.18403328353725,448.558886062009,693.8903703099428
-481.05826148582855,467.9069814870522,697.8111791488429
-461.082020873591,452.48887234682593,721.7102680324067
-465.4790371839518,394.4527438014001,717.9148842877028
-495.05182707652466,379.5587687946445,756.7691311508008
-458.817231164567,406.71381154624675,796.4656636058187
-487.84447288319666,391.9554587958172,851.0255795812027
-465.5687722106938,349.08454976979914,835.8052953862941
-484.56302610983374,329.99240311421335,847.359699795547
-512.1912171842577,314.5885700009688,831.2991694411446
-523.4519433241729,337.92477553496866,834.9762661051429
-535.9118557305502,326.2021179505744,811.2811204641749
-529.0491656172088,283.45051572147474,795.8303804051334
-541.6722326176625,229.20569205590087,776.2008433053082
-527.4584083249632,213.3389077819643,745.0699270393051
-555.9135892481123,241.20469273401213,807.3439961658671
-544.7884853645231,198.52549035603394,803.7301219070733
-527.8754722560711,198.78245884170437,847.1537171205256
-520.3866763879613,225.7019471481087,835.4004680497418
-527.8754722560711,218.09180505065441,843.1635675791429
-496.4478185720915,225.72845976964612,859.3066949467965
-530.5563061799902,230.00209041823663,874.4800721959081
-539.5726369351411,218.14686972615522,839.0632886867586
-531.9747314322425,221.92185914659953,835.2403726043044
-560.0118287080705,206.41605441205715,807.400080557581
-579.5781434026911,164.00911626294405,807.2501822742731
-610.4877812504781,171.95066612961617,802.8358307882917
-595.1012833128541,148.65320981170942,807.0686727883631
-599.0363681787359,175.69608377988408,799.0700188137642
-602.9449404230803,167.98804892598392,799.037387894949
-598.8456812469091,164.1579948300388,806.9605828697873
-580.3959558054994,144.49480709518545,787.6808084310138
-584.1403537395544,159.9995921135148,787.5716987962251
-585.3242442628217,268.83186409222316,842.1316147716092
-504.8655759102242,279.6765460172434,827.6016784528866
-593.2923067510312,109.49202836850506,756.208287233663
-570.8789443897764,66.65446406265137,744.9149301749324
-599.0098555571984,198.8742333008724,795.0676326778258
-594.9116160972402,233.66287162282742,795.0115482861121
-565.8007576491464,182.78922975735856,756.3724615439525
-642.7332473372661,164.10904845181588,763.1331800359961
-638.444320945481,187.3595978239256,770.9676597003055
-549.3068479042283,188.67197259002822,564.293617086365
-645.7148975440136,191.3905360138274,782.6189371497913
-703.2911340773863,217.9306898890039,671.7778242315164
-688.8682679610265,257.1785472103114,746.4292087512046
-593.1577042109182,206.0724100482836,740.1865060953537
-559.3204611156716,143.8024197865734,729.1287034818212
-603.1906920304081,191.0978774607027,787.1821672028675
-586.5774754885716,245.3457602749155,810.7957355467975
-539.3554373817767,268.40664243141134,834.9721872402912
-536.5104291475683,260.3998307271087,807.5693534489353
-539.5196116920661,303.12288090224496,823.0792370483296
-538.8109089240464,326.47132303080053,838.7094471608552
-528.4771048217282,306.7653072150021,807.533663381481
-520.8791993188297,271.9216042175463,811.690026665579
-562.584572713414,272.41922572947954,830.6863199971449
-551.2432889926735,279.9997960567574,822.9813442918837
-528.8034140098811,260.34068718675593,807.6856010972147
-532.601856903224,229.48917316310872,815.5822834505158
-529.0206135632454,229.39026069044988,807.7865530022996
-532.9291858075899,240.99259176171273,803.7647922583146
-498.79418557815364,259.89711063411056,784.5890288732646
-555.42310574967,233.60474779868767,823.0751581834776
-577.3898324096405,217.62885388996244,748.2320670157496
-558.3955785105006,275.3396929634483,728.6994029561573
-574.4907792161442,255.97834122763638,712.824460952517
-586.9782239602719,221.07753412225378,693.1327211637002
-613.1890094986566,233.06327848959637,712.3227605757319
-616.496968893557,233.22949223231177,727.9713255800912
-575.0087950523371,240.40013664197258,701.0956850708449
-566.2667679584772,271.4963825567345,724.6694844824686
-602.9204672339689,307.02227570067254,771.0961439431406
-548.2912105561023,345.3962362274579,783.559115498157
-521.1800156016582,325.9125185460887,791.8799997960568
-469.96680823726757,329.6681333584864,824.0316519912509
-488.3614690031764,337.7595815084662,847.2760830660828
-511.40195683541276,388.1631341997522,838.9113509710248
-483.52699443744814,361.146772853115,870.8172515588913
-487.8159208292332,337.8962234810053,862.9827718945819
-512.5185460886236,345.40133480852285,815.4915287075607
-539.5746763675669,314.69462048711847,819.1145804122713
-525.4679222772303,264.04225703986583,792.0247994982997
-533.2289823742053,217.7461212544549,799.913324121897
-560.3126449908991,241.09762253164948,791.5802032294413
-559.6855195199176,252.84067444030327,807.2481428418472
-556.2949631117662,206.35181229063957,803.5312772455427
-544.8160177022735,213.96603325294572,799.7532286764595
-568.0471924663367,237.2889824761769,791.4772118919306
-561.9758021342661,217.509547093044,748.4635425960956
-529.0756782387463,221.65265406637334,807.812045907624
-502.8924250381119,244.41781852110563,780.6549637235959
-447.51775580855855,266.5334237481709,706.8417859309754
-519.9522772812327,306.91112663345797,831.2084146981896
-620.0873896794523,296.11233193802167,833.6700096363182
-515.4889794170283,251.97085651063313,749.04376112128
-485.9243472541593,252.41239363085256,824.0530660317236
-556.89557596121,237.09727582813707,779.8708019558158
-614.2872438600338,199.02719073281907,798.7630842336579
-590.7583119617811,218.2600582257958,806.8993998970087
-525.9594254918857,290.95256790035336,772.3034879393066
-549.2986901745245,279.49095766648145,768.0675867905962
-562.1654693498799,190.4279239087762,748.5522579066247
-580.179775968348,214.06290629317863,779.5995574431637
-578.3259318931541,284.04195112500196,818.6373532245977
-533.3666440629573,294.9488357390139,780.0278382526144
-537.0019323622237,268.00079537864616,791.8381914313247
-612.2345551233093,233.3029117996462,739.8081913803389
-598.1298404653985,221.26924077029364,704.739131099815
-565.9659516756487,256.1241606460922,736.5002319854385
-568.9210892608587,306.583797729092,751.9836029632954
-565.8038167977852,317.9546532200089,728.4444739029129
-556.4611768544814,318.3054355972733,775.6787486042635
-534.5128050863445,306.24729137880934,744.6508236757711
-530.4410782479237,317.857780179776,748.5971254199958
-533.8041023183248,329.59675322357793,760.2810337882968
-540.6107080399526,341.467269658854,783.6875997409921
-528.8329857800575,372.327961128418,783.7599995921137
-517.8169915312569,333.4828917112368,776.2059418863731
-533.8581472776127,321.8591465995014,760.3065266936212
-541.8109140226276,325.71877246562286,752.325207894643
-545.7459988885093,352.7616464337975,744.3255342038311
-544.0838614613554,376.34972187240294,787.4421948371769
-549.4914165387773,368.26643145212694,744.2174442852555
-525.0345428867147,364.5607827341651,783.8425966053649
-520.6905518194287,376.23959252140133,795.6417329057324
-528.5331892134419,376.2650854267258,791.5995778374879
-505.7394727047463,368.2807074791086,784.1189396990819
-485.5450128229314,364.5026589100254,811.9062065027305
-504.6218637353225,372.42279473622494,815.5190610453112
-508.66605823599303,383.9904554562466,807.5703731651482
-512.8734073307398,353.03696981130156,803.6862741099153
-517.4906823431039,341.2888193215829,784.0343032534047
-544.9281864857011,352.9666093926061,767.8850575884733
-528.80647315852,376.19676444045626,783.7467432813448
-533.0413545910175,379.99316790137306,771.8966211703284
-544.7925642293751,391.6199721617474,763.8327053580989
-548.3727878531405,372.4085187092433,775.6175656314848
-548.8092263922952,368.4367240596942,763.8500405337195
-545.2290027685295,368.33883130324836,756.0553298017163
-553.017595203255,356.79258462369927,755.976811653317
-560.3962617203633,326.03896335649796,771.6692244548343
-564.7127204498988,298.9196106723499,763.8469813850807
-537.4118582798408,306.51649645903547,772.0791503724514
-548.5359424472169,310.5770064191136,783.6723039977975
-541.374475483473,329.69056711517186,764.0927329924083
-541.3469431457225,333.5593704272102,764.0794766816396
-548.9448486486211,310.4750347978158,771.8925423054765
-561.4598257304992,310.32411679829505,744.2337597446632
-549.4903968225643,329.64773903422684,752.1967236518078
-556.760973421097,333.6776575079156,763.8480011012936
-557.0607699877125,329.7405332096078,756.0084228559192
-569.0567115171848,306.54912737785077,748.0576955433304
-572.9102190860284,287.27037265529003,751.9897212605733
-553.5611039447723,279.417538099147,756.2297012741356
-548.998893607909,283.4280819647892,775.9081847521836
-564.5220335180719,287.38152172250466,771.7375454411039
-552.879933514503,298.8981966318774,771.87316769743
-548.9713612701586,267.98753906787744,779.8850779827975
-549.134515864235,264.08406540459794,775.9714071573882
-558.0407172683842,248.3947117517195,744.4937873789725
-550.0063732263312,236.8321496127628,756.4275262194533
-543.035593194414,228.86408712455327,736.9356508083802
-541.699764955413,244.6472546690256,772.2239500746944
-545.2534759576411,267.9232969464598,776.0162746707592
-541.1827688354332,279.5337857474265,779.9625764149838
-541.9730489004911,283.1976261006562,756.390816435786
-554.4604936446187,267.6061652042237,732.7089271055866
-554.0515874432147,267.70915654173444,744.4886887979076
-542.2738651833196,298.5698480112985,744.5610886490291
-525.8788679110604,341.17767025436825,764.2854593566611
-532.7680706459392,341.4417767535295,787.7297548092367
-532.3040997690343,349.2823747151168,799.4840235962332
-528.3690149031526,360.8592128810552,799.5033982042798
-513.1466912758181,352.96762910881904,795.8334395537722
-508.529416263454,345.40643338958773,819.4755599516656
-493.742511459061,352.8534208929656,800.048946378223
-504.6483763568599,329.9352990062866,823.5105770064192
-496.6415646525573,353.1226259731917,827.4772730749033
-501.4219942589978,356.7813677453565,799.9214818516008
-501.6402135285751,345.14130717421347,796.032284215303
-489.58920732360195,337.4516272121469,811.9378177053327
-511.8373756583543,364.8819933412532,831.1349951308553
-519.8717197004074,357.1362289874728,823.191405831757
-451.05413163516596,337.1538700779574,812.5159967980912
-494.42470160554325,352.68210856918523,780.4163501297589
-560.0699525322103,391.77292959369413,767.5271371977179
-541.2928981864349,360.6063232602367,760.0648539511454
-539.2208348416636,384.29739003635297,814.9602565605993
-536.6491105525333,376.22225734578075,779.7045882131004
-506.33906583797733,341.097112673543,772.4278933172899
-494.75101079369614,325.56683474988915,776.5781383041101
-533.4217087384582,325.83094124905045,772.0740517913865
-544.5192802842969,353.06960073011686,779.6648192807943
-544.0828417451424,357.0403756634529,791.4323443785596
-540.9920819036063,325.9247551406444,775.8847312792851
-549.135535580448,302.70275782249803,767.992127790836
-573.019328720817,291.1045056160871,748.0505575298396
-546.31805968399,290.82816252237006,740.6015305940357
-561.513870689787,302.58752989043154,744.2592526499876
-553.616168620273,310.2996436091836,748.2759148129077
-553.153217459581,318.13922185455795,760.0301835999043
-545.6644215914712,325.7483442357992,752.2670840705033
-568.7018502750685,279.605165882335,763.8520799661455
-572.7195321542016,275.7322837054448,759.8802853165965
-557.63181106698,267.80704929818035,752.2833995299109
-573.5648768947602,271.65851743459797,736.3340182427231
-556.759953704884,295.0589650900155,771.8283001840589
-553.2337750404063,306.53281191844314,760.0679130997844
-572.747064491952,291.1728266023566,755.9033920859825
-569.5747273533776,290.97194250839993,736.3278999454452
-561.4598257304992,310.32411679829505,744.2337597446632
-557.9050950120583,287.04807452086084,740.4404154323853
-557.5512534861549,298.72280544324514,748.256540204861
-549.4077998093131,302.63443683622853,760.1382735184799
-553.016575487042,318.1738922057992,763.9571107360822
-557.2789892572898,318.10047263846474,752.1192252196215
-552.7983562174647,310.50460656799214,771.8354381975497
-553.8619202276008,333.40845242768944,736.4206941208263
-548.9458683648342,349.0937272157159,763.9132629389242
-545.0923607959905,349.06415544553954,763.971386763064
-533.5318380894598,348.9744204187975,764.1447385192702
-549.136555296661,341.3214502403981,760.0118287080707
-525.251742440079,352.9207221630221,779.95441868528
-529.7599078176544,356.64778492145643,760.2504423019075
-532.6589610111507,356.91699000168256,787.6787689985878
-536.7306878495716,364.61584740966595,779.7423177129806
-540.2018018385485,341.57026099636477,795.4663417171002
-540.9655692820688,329.7925387364697,775.8724946847294
-536.3217816481674,345.40949253822663,795.5122289466842
-540.7198176747412,345.302422335864,779.7484360102585
-537.9849387915344,341.1297435923583,748.4064384881689
-548.5910071227178,341.45911192915014,775.7185175365696
-545.1198931337409,364.5046983424513,759.9944935324501
-548.9183360270837,352.96253052775415,763.9010263443685
-548.4543651501788,360.8021087731285,775.655295131365
-545.0107834989524,360.6695456654414,763.9336572631837
-545.3646250248556,368.3051806682201,752.1284026655383
-549.7096358083546,356.6253511647709,740.3292663651707
-548.5634747849674,364.63726145013845,771.7161314006313
-541.4020078212234,364.44045622103374,756.1256902204118
-540.9931016198192,364.54344755854447,767.9054519127327
-541.9475559951666,344.99446803954464,744.4091509332953
-541.2653658486844,345.1657803633249,764.0417471817593
-549.136555296661,341.3214502403981,760.0118287080707
-556.7334410833466,337.54646081995384,763.8357645067379
-538.0940484263231,325.6555500604182,748.4564045826048
-556.6793961240587,345.28406744403037,763.8102716014134
-545.6644215914712,364.3680563699123,744.287804703951
-561.5148904060001,341.20622230833163,736.2799732834353
-556.6528835025213,368.4622169650187,759.8078854654751
-545.5553119566824,360.5329036929023,748.2269684346847
-537.5485002523799,364.4108844508574,756.1838140445515
-560.8061876379804,364.55466443688726,751.910183395961
-552.74533097439,376.1702518189188,759.8405163842904
-549.0814906211601,349.05905686447466,759.9873555189592
-537.9033614944962,352.73615352847304,748.3676892720757
-553.4530140261966,333.5114437652002,748.2004558131473
-549.600526173566,372.1005644129239,740.2782805545218
-542.0026206706674,375.8755538333682,736.4553644720675
-533.3951961169207,368.31843697898876,764.0815161140655
-537.2762360235148,345.16985922817685,768.0257784258642
-541.3469431457225,333.5593704272102,764.0794766816396
-541.7568690633398,352.76572529864944,748.310585164149
-541.4020078212234,345.1311100120837,760.1148200455814
-529.5692208858275,345.10969597161113,768.1420260741436
-525.7697582762718,356.6528835025213,764.2354932622252
-521.2626126149094,372.23414723682407,779.948300388002
-529.6507981828657,352.8136519606594,764.1896060326412
-544.5457929058343,329.89145120912855,783.6672054167326
-530.2228589783464,329.49886046713203,752.4863230562935
-545.255515390067,345.16068178226004,760.0577159376546
-537.221171348014,352.9074658522534,768.0013052367527
-537.5209679146294,348.97034155394556,760.1607072751654
-538.2031580611116,329.4896830212152,744.517240851871
-536.6215782147829,360.78171444886897,783.6814814437143
-548.208613542851,337.6922802384097,787.5105158234464
-533.7490376428241,337.33435984765447,760.2565605991853
-540.773862634029,318.2554695028374,783.7630587407525
-537.3843259420904,329.6946459800238,768.0767642365131
-551.8979468014053,322.3159794629155,795.3562123660986
-545.7459988885093,314.14295401589743,752.3058332865965
-549.135535580448,302.70275782249803,767.992127790836
-548.9173163108708,314.34383810985406,771.8803057109208
-544.9822314449889,325.9196565595795,771.9007000351803
-537.5209679146294,329.6609953449955,764.149837100335
-544.9006541479507,337.5260664956943,771.8619508190872
-540.8289273095298,329.82720908771097,779.7984021046943
-536.9489071191488,333.66644062957283,779.8432696180654
-525.0059908327513,329.8108936283033,791.8096393773613
-544.9271667694882,314.347916974706,775.8643369550255
-533.6674603457858,310.32105764965615,768.1981104658574
-532.7130059704384,349.17938337760603,787.7042619039122
-533.1229318880556,349.07741175630827,775.9245002115912
-537.8207644812449,325.72387104668775,756.3092391387478
-530.195326640596,314.0572978540073,756.4632162869075
-544.2735286769692,329.95977219539805,791.5200399728756
-529.2959369407495,325.8696904651436,779.9850101716694
-520.9617963320808,337.5525791172317,795.7681777161417
-543.7555128407764,326.22761085589883,807.2389653959304
-529.4325789132885,325.8350201139023,776.0580830354913
-525.2242101023286,318.1708330571602,787.9204417410635
-533.4492410762085,341.27148414596223,768.0961388445596
-541.3204305241852,337.4281737392484,764.0672400870839
-533.613415386498,337.36801048268273,764.1824680191503
-536.7847328088593,337.56889457663937,783.7579601596876
-532.9862899155166,349.11106239133653,779.8514273477692
-529.0777176711722,337.5097510362866,783.8731880917542
-529.3234692784998,341.3102333620554,776.0070972248425
-533.7490376428241,337.33435984765447,760.2565605991853
-529.7048431421537,325.7666991276328,768.2052484793483
-525.4964743311937,318.10149235467776,780.0676071849205
-533.4227284546712,345.14028745800044,768.0839022500039
-529.268404602999,329.7374740609689,779.9717538609005
-517.0817761416998,341.3918106590936,795.8140649457257
-528.7503887668063,326.0063324376826,795.6906792839554
-541.4285204427608,302.6436142821453,768.1073557229024
-537.7391871842067,318.0199150576395,760.2616591802501
-536.757200471109,322.12835167972753,787.7348533903015
-545.1453860390654,322.017202612513,767.9860094935581
-545.5002472811817,310.34247169012866,760.1709044372951
-544.5457929058343,310.5821050001785,787.6573549581153
-533.6939729673232,306.4522543376179,768.2103470604131
-532.9852701993036,310.49236997343644,787.8307067143215
-537.0029520784367,325.9288340054963,779.8687625233898
-525.1426328052903,329.77622327706206,787.8827122411834
-544.9822314449889,325.9196565595795,771.9007000351803
-533.1769768473434,341.33980513223173,775.9499931169156
-533.5583507109973,325.79627089780917,768.1471246552085
-537.221171348014,333.5981196433033,771.9904350619223
-536.6491105525333,356.91291113683064,783.694737754483
-517.3265080328146,325.8829467759123,791.9381236201966
-537.3302809828025,318.12290639515027,772.0414208725713
-530.2228589783464,329.49886046713203,752.4863230562935
-536.7296681333585,325.99715499176585,787.7226167957458
-537.1661066725131,322.0253603422168,775.9550916979805
-540.3924887703753,333.79900373725997,791.5659272024596
-540.1477568792606,329.99852141149125,799.4309983531584
-529.3775142377876,333.57262673797885,776.0325901301669
-533.5858830487476,341.23681379472094,764.1702314245946
-529.7874401554047,352.7789816094181,760.2636986126762
-533.8316346560753,345.0372961204897,756.3041405576829
-537.8758291567457,337.29561063156126,752.3456022189025
-533.476773413959,337.40268083392397,768.1093951553283
-529.3234692784998,341.3102333620554,776.0070972248425
-533.2310218066312,333.60219850815525,775.9754860222401
-533.8581472776127,341.16849280845145,756.3173968684516
-532.9587575777662,352.9798657033748,779.8381710370005
-525.3333197371172,341.3143122269073,779.9921481851602
-541.1562562138957,341.3306276863149,767.9809109124932
-536.9489071191488,372.2851330474729,771.8639902515131
-537.3853456583033,349.0039921889738,764.0866146951304
-529.0512050496347,341.37855434832494,783.8609514971985
-541.7018043878389,341.1939857137759,752.2752418002071
-525.525026385157,352.85240117675255,772.100564412924
-533.3136188198824,360.61448098994055,768.033936155568
-528.8054534423071,356.8874182315062,787.7368928227276
-537.0580167539375,356.8099197993199,771.9149760621619
-528.9961403741339,349.1161609724014,783.8354585918739
-529.6507981828657,333.50430575170935,768.1797555740238
-540.9390566605315,352.970688257458,771.870108548791
-521.6715188163134,352.8228294065762,772.1586882370636
-529.4601112510389,341.2755630108141,772.0811898048775
-517.7354142342188,345.0893016473516,776.1682123864929
-533.6949926835363,325.7626202627809,764.2201975190305
-528.8594984015949,329.84046539847964,791.7515155532217
-521.4808318844866,360.594086665681,776.0601224679173
-525.3608520748676,356.7548551238191,776.0152549545462
-533.150464225806,364.51795465322004,771.9476069809773
-529.2969566569624,364.4883828830437,772.0047110889041
-521.3166575741972,345.1871944037975,783.9639428347092
-525.252762156292,372.2300683719721,775.9642691438974
-541.5661821315128,360.5380022739672,752.2120193950025
-521.235080277159,376.1029505488623,779.9360637934464
-529.0512050496347,360.68790055727493,779.8708019558158
-521.6980314378509,348.95402609453794,772.1709248316195
-533.7500573590371,356.64370605660446,756.2664110578027
-537.4393906175912,360.5757317738474,760.1229777752852
-540.5566630806647,349.2048762829305,783.6621068356677
-530.0056594249821,341.1389210382751,756.3745009763784
-522.0528926799672,337.27929517215364,764.3558197753566
-537.4393906175912,341.26638556489735,764.1121076004549
-529.3785339540007,352.8819729469289,772.0434603049972
-544.6824348783734,349.16612706683736,775.751148455385
-525.2252298185415,356.7895254750603,779.9411623745112
-537.3027486450521,341.3010559161386,768.0390347366329
-540.0926922037597,337.73612803556773,799.4065251640469
-518.4176043807009,344.9179893235713,756.5356161380289
-532.6589610111507,337.6076437927325,791.6689185399705
-509.51038326033876,341.2979967674996,792.0023657416142
-544.9281864857011,333.657263183656,771.8752071298559
-529.1052500089226,352.9502939331984,779.8962948611403
-524.9519458734635,356.85784646132987,787.7939969306543
-524.9794782112139,352.9890431492916,787.8072532414229
-537.0855490916879,352.94111648728165,771.9272126567178
-537.0845293754749,333.63177027833154,775.9173621981004
-510.1650410690705,344.9954877557576,772.3575328985944
-537.5209679146294,348.97034155394556,760.1607072751654
-528.668811469768,356.92208858274745,791.6628002426926
-513.6371747742604,360.5685937603565,780.1022775361618
-520.771109400254,364.6342023014995,795.6804821218255
-517.4631500053536,345.1576226336211,784.021046942636
-513.8278617060872,352.7973365012518,776.2008433053082
-517.8720562067577,345.05463129611036,772.2423049665279
-529.4325789132885,345.1443663228524,772.0679334941086
-529.1052500089226,352.9502939331984,779.8962948611403
-521.8346734103899,348.9193557432967,768.2450174116544
-537.3302809828025,318.12290639515027,772.0414208725713
-529.3510016162503,337.4414300500171,776.0203535356111
-518.4451367184513,341.04918601153304,756.5478527325846
-541.1022112546079,329.7588881014414,771.9455675485514
-530.0056594249821,341.1389210382751,756.3745009763784
-531.9767708646684,337.7789561165128,811.3015147884345
-529.6773108044032,329.6355024396711,768.1919921685795
-533.6674603457858,329.6304038586062,764.2079609244748
-529.0777176711722,337.5097510362866,783.8731880917542
-537.2752163073017,325.8605130192268,772.0159279672469
-532.9587575777662,352.9798657033748,779.8381710370005
-529.7588881014414,318.0290925035563,768.2307413846727
-533.7215053050737,321.89381695074263,764.2334538297993
-533.8306149398622,306.4186037025896,764.2834199242351
-521.507344506024,337.4159371446927,780.0625086038557
-529.132782346673,329.77214441221014,783.8986809970786
-533.3401314414199,337.43633146895223,772.0353025752934
-525.0335231705017,345.25143652521507,787.8327461467475
-529.132782346673,329.77214441221014,783.8986809970786
-521.7520763971388,321.90707326151136,776.1865672783265
-517.7354142342188,325.77995543840154,780.1583619278756
-513.7727970305864,321.9152309912152,784.155649482749
-522.0253603422168,341.1480984841919,764.3435831808009
-528.3965472409029,337.6810633600669,803.5057843402182
-534.1589635604412,337.2313685101437,748.4767989068642
-537.357813320553,333.56344929206205,768.0645276419574
-533.3401314414199,318.1269852600022,776.0254521166761
-541.5926947530503,318.0505065440288,760.2035353561105
-525.7422259385214,321.9019746804465,772.2025360342218
-541.2928981864349,321.9876308423366,768.0441333176977
-525.0335231705017,325.942090316265,791.821875971917
-537.4118582798408,325.82584266798557,768.0890008310688
-532.9312252400158,318.2299765975129,787.8052138089971
-526.1511321399255,321.8000030591487,760.4227743419008
-541.2113208893966,333.59302106223845,768.0064038178176
-530.195326640596,314.0572978540073,756.4632162869075
-529.4325789132885,325.8350201139023,776.0580830354913
-537.8207644812449,325.72387104668775,756.3092391387478
-513.5280651394718,337.42511459060944,788.0315908082781
-525.3057873993669,325.8737693299955,783.9690414157741
-533.3951961169207,329.69974456108866,772.0607954806178
-521.8071410726395,333.47881284638487,772.2219106422684
-522.2160472740437,314.0664752999241,764.43229849133
-532.7945832674767,318.26362723254124,791.732140945175
-521.4522798305233,325.8441975598191,784.0271652399138
-537.1120617132252,329.76296696629333,775.9295987926562
-529.132782346673,329.77214441221014,783.8986809970786
-541.4009881050105,306.5124175941836,768.0951191283467
-537.7391871842067,318.0199150576395,760.2616591802501
-529.731355763691,302.5885496066445,772.2076346152867
-529.7588881014414,318.0290925035563,768.2307413846727
-528.6412791320176,322.17117976067266,799.6298430146891
-541.7018043878389,321.8846395048259,756.2643716253767
-532.8486282267645,310.52704032467767,791.7566141342865
-520.8526866972923,314.40909994748466,803.697490988258
-537.1926192940506,298.8472108212285,779.9574778339189
-513.473000463971,325.85235528952296,791.9952277281234
-533.7215053050737,321.89381695074263,764.2334538297993
-537.3027486450521,321.99170970718853,772.0281645618026
-541.2928981864349,321.9876308423366,768.0441333176977
-548.8082066760821,329.8180316417941,771.8303396164848
-541.2653658486844,325.8554144381619,768.031896723142
-533.476773413959,318.0933346249739,772.098524980498
-540.8564596472802,325.95840577567265,779.8116584154631
-536.8663101058976,325.96248464052456,783.7956896595679
-543.918667434853,322.3251569088323,803.3252945705211
-537.167126388726,341.33470655116685,771.9649421565979
-533.5858830487476,321.9274675857709,768.1593612497643
-545.8275761855476,321.8458902887327,748.353413245094
-526.1235998021751,306.3594601622369,764.3996675725147
-529.2408722652486,314.29693116405707,783.9496668077276
-536.8663101058976,325.96248464052456,783.7956896595679
-544.0818220289294,318.4216832455528,799.4116237451118
-556.4876894760189,295.12728607628503,779.681134740202
-541.1011915383949,310.44954189249137,775.935717089934
-548.7806743383318,314.3774887448823,775.8072328470987
-540.7473500124917,322.12427281487567,783.7508221461968
-530.0597043842699,333.40131441419857,756.3999938817028
-541.4560527805113,318.08415717905706,764.1304624922885
-529.9505947494813,329.56718145340153,760.3391576124366
-537.6565901709555,310.31697878480423,764.2130595055397
-529.8139527769423,310.2914858794798,768.2552145737842
-545.3370926871053,314.2449256371952,764.0855949789175
-541.1562562138957,322.0212814773649,771.9710604538758
-525.0335231705017,325.942090316265,791.821875971917
-547.936349313986,337.7606012246792,795.3633503795895
-548.7266293790439,322.11509536895886,775.7817399417743
-544.7640121754117,318.2503709217725,779.7790274966478
-545.4186699841434,321.94888162624346,760.133174937415
-541.7293367255893,337.32518240173766,752.2874783947628
-529.0777176711722,337.5097510362866,783.8731880917542
-537.357813320553,352.87279550101215,764.0743781005747
-528.8054534423071,337.57807202255617,791.7260226478971
-529.6773108044032,329.6355024396711,768.1919921685795
-541.1022112546079,329.7588881014414,771.9455675485514
-541.1022112546079,329.7588881014414,771.9455675485514
-532.8221156052272,333.705189845666,787.7542279983481
-545.0913410797775,329.7548092365895,767.9615363044466
-533.5583507109973,325.79627089780917,768.1471246552085
-537.6841225087059,325.757521681716,760.2361662749258
-544.4366832710457,326.05629853211855,787.6063691474664
-540.8839919850307,341.3989486725845,775.8337454686362
-532.9852701993036,329.8017161823865,783.8405571729388
-536.6480908363203,337.60356492788065,787.6838675796527
-545.1739380930288,337.4577455094248,764.0091162629442
-544.7640121754117,337.55971713072256,775.7888779552652
-533.5858830487476,321.9274675857709,768.1593612497643
-545.718466550759,318.0117573279357,752.2925769758277
-537.5209679146294,329.6609953449955,764.149837100335
-541.0746789168575,333.6276914134797,771.9333309539956
-537.0029520784367,325.9288340054963,779.8687625233898
-533.8581472776127,321.8591465995014,760.3065266936212
-537.8748094405328,317.9862644226112,756.3347320440722
-545.6909342130086,321.8805606399739,752.2803403812719
-545.3911376463931,325.81768493828173,760.1209383428593
-545.6093569159704,333.48595085987574,752.2426108813918
-544.2459963392189,333.8285755074363,791.5078033783199
-548.7001167575064,345.2932448899472,771.779353805836
-544.5457929058343,329.89145120912855,783.6672054167326
-541.0471465791071,318.1871485165679,775.9102241846094
-521.5348768437744,333.5471338326544,780.0747451984114
-541.1562562138957,322.0212814773649,771.9710604538758
-526.1511321399255,321.8000030591487,760.4227743419008
-530.195326640596,314.0572978540073,756.4632162869075
-545.6368892537207,329.6171475478375,752.2548474759476
-544.9271667694882,314.347916974706,775.8643369550255
-540.7473500124917,322.12427281487567,783.7508221461968
-536.9203550651854,318.22589773266105,783.8211825648923
-552.2528080435216,310.6412485405312,787.5411073098358
-541.2643461324715,306.54606822921187,772.0210265483117
-540.9380369443185,314.35199583955784,779.8493879153433
-533.0403348748044,322.06410955830995,783.8660500782634
-536.9754197406862,329.79763731753457,779.8565259288341
-529.4601112510389,341.2755630108141,772.0811898048775
-525.4974940474067,337.4118582798407,776.0784773597509
-534.0498539256525,333.39723554934665,752.4159626375981
-533.0128025370541,325.9329128703482,783.8538134837075
-533.0128025370541,325.9329128703482,783.8538134837075
-537.630077549418,314.18578209684244,764.200822910984
-544.5733252435848,326.0226478970903,783.6804617275013
-533.0953995503052,333.6368688593965,779.9013934422052
-541.1022112546079,329.7588881014414,771.9455675485514
-540.3649564326249,318.3574411241352,795.5428204330736
-536.5389812015317,333.7684122508706,791.6230313103864
-533.0403348748044,322.06410955830995,783.8660500782634
-536.893842443648,322.09470104469926,783.8079262541236
-528.8054534423071,337.57807202255617,791.7260226478971
-541.374475483473,329.69056711517186,764.0927329924083
-533.5308183732468,310.3557280008974,772.1240178858225
-544.8731218102002,341.39486980773256,771.8497142245313
-548.9173163108708,314.34383810985406,771.8803057109208
-534.0488342094396,314.0878893403966,756.4050924627677
-549.0814906211601,329.7497106555246,763.9764853441288
-544.7364798376612,322.1191742338108,779.7657711858791
-545.1729183768158,298.8390530915247,771.9883956294964
-541.2113208893966,333.59302106223845,768.0064038178176
-548.5359424472169,310.5770064191136,783.6723039977975
-529.7048431421537,325.7666991276328,768.2052484793483
-556.9791926906743,322.03759693677256,759.9598231812088
-530.2503913160969,325.63005715509377,752.4985596508492
-521.235080277159,337.4842581309622,787.9153431599987
-529.0777176711722,337.5097510362866,783.8731880917542
-544.3826383117579,333.7939051561951,787.5808762421419
-532.4407417415734,329.93835815492554,799.5472460014379
-533.3401314414199,318.1269852600022,776.0254521166761
-525.2242101023286,337.4801792661103,783.9313119158938
-528.4781245379411,364.69334584185225,795.5642344735461
-544.055309407392,341.5998327665411,795.4092376091735
-543.918667434853,341.6345031177824,799.3351450291385
-528.8054534423071,337.57807202255617,791.7260226478971
-548.5910071227178,341.45911192915014,775.7185175365696
-544.9822314449889,345.2290027685296,767.9105504937977
-544.0277770696416,326.15928986962933,799.3861308397874
-536.2116522971658,322.26499365226664,803.4405225025877
-552.0621211116946,337.7218520085861,787.4523919993067
-540.8013949717794,333.6960123997492,779.7861655101386
-545.5002472811817,291.0331254811786,764.1610539786778
-537.9839190753214,302.51105117445815,756.3857178547211
-546.3455920217405,306.26870541928184,736.6246373634218
-546.9992301142593,290.6568501985898,720.9689343455717
-542.5196167906472,302.37033033706723,736.6949977821174
-556.7334410833466,298.92776840205374,771.8150438732902
-537.8472771027823,302.54572152569943,760.3126449908991
-560.777635584017,310.49542912207534,763.8663559931272
-549.2997098907375,318.10965008438154,760.088307424044
-548.3717681369276,314.4804800823931,787.5869945394197
-564.3588789239955,310.59332187852124,771.6620864413435
-552.4434949753485,302.8699912814264,783.6406927951953
-541.3194108079722,298.8094813213483,772.0465194536362
-545.2544956738541,306.54198936435995,768.0369953042069
-541.2643461324715,306.54606822921187,772.0210265483117
-525.11510046754,333.64502658910027,787.8704756466277
-541.7283170093764,318.01583619278756,756.2776279361454
-548.6450520820057,314.4121590961236,779.7331402670637
-541.510097739799,310.3465505549806,764.155955397613
-549.3812871877758,306.5032401482668,760.1260369239242
-537.2752163073017,325.8605130192268,772.0159279672469
-548.6450520820057,333.7215053050736,775.7440104418941
-543.7279805030261,330.0964141679371,807.2267288013747
-544.4917479465465,337.6290578332051,783.6417125114082
-541.511117456012,348.9652429728807,756.1756563148476
-532.9036929022653,341.40812611850123,783.8028276730587
-540.4200211081256,349.23954663417175,787.5880142556327
-536.4849362422439,341.50601887494713,791.5985581212749
-540.9105046065681,337.5301453605462,775.8470017794049
-533.5032860354964,314.22453131293565,772.1117812912668
-537.357813320553,333.56344929206205,768.0645276419574
-552.6076692856378,337.585210036047,771.7467228870206
-541.1562562138957,341.3306276863149,767.9809109124932
-549.3272422284879,352.8595391902434,752.1212646520474
-533.3125991036695,321.99578857204045,776.0132155221203
-532.8486282267645,310.52704032467767,791.7566141342865
-536.9754197406862,329.79763731753457,779.8565259288341
-541.5376300775495,306.47774724294237,764.1681919921687
-521.3982348712354,314.27143825873264,787.991821875972
-541.2918784702218,302.67726491717355,772.0342828590803
-552.4710273130988,299.0011879693881,783.652929389751
-544.9271667694882,314.347916974706,775.8643369550255
-540.773862634029,318.2554695028374,783.7630587407525
-549.0264259456594,318.1779710706511,767.941141980187
-557.2249442980019,325.83807926254127,752.093732314297
-552.552604610137,326.0134704511735,775.7113795230788
-537.0580167539375,337.50057359036987,775.9041058873316
-544.6283899190856,337.5943874819638,779.7158050914431
-544.4917479465465,337.6290578332051,783.6417125114082
-536.2391846349161,337.7055365491784,799.4636292719738
-548.3177231776398,322.2180867064696,787.5615016340954
-536.5114488637813,318.3278693539588,795.6009442572133
-540.773862634029,318.2554695028374,783.7630587407525
-534.07636654719,329.5284322373084,752.4281992321538
-529.6507981828657,333.50430575170935,768.1797555740238
-545.4462023218939,318.0800783142052,760.1464312481837
-553.2623270943698,321.9733548153549,756.0910198691705
-552.9890431492917,322.04269551783744,763.9438544253135
-549.6260190788904,310.3037224740355,752.2599460570125
-552.5250722723866,310.5729275542617,779.6882727536928
-561.0498998128821,310.42710813580584,756.0135214369842
-549.6260190788904,290.99437626508546,756.2500955983951
-549.8993030239685,310.235401487766,744.4071115008694
-552.9890431492917,302.7323295926744,767.9340039666961
-536.7021357956081,291.24726588590397,795.6886398515294
-532.5223190386116,318.33296793502376,799.584975501318
-541.237833510934,310.4148715412501,772.008789953756
-544.9271667694882,314.347916974706,775.8643369550255
-546.3455920217405,306.26870541928184,736.6246373634218
-550.1715672528336,290.8577342925464,740.543406769896
-551.0434246149297,282.9151647096613,717.0103960067913
-553.7517908765991,271.64628084004227,752.329286759495
-557.4421438513663,314.19801869139826,748.2055543942122
-556.6518637863084,349.15287075606864,763.7980350068577
-559.4968720205168,376.46902866932135,787.2107192568309
-555.9982256937895,364.7647259767607,779.4537380247078
-549.1906002559489,333.5848633325346,760.0373216133951
-554.407468401544,333.27181045515033,720.7140052923272
-554.4615133608318,325.53420383107385,720.7394981976516
-542.6827713847238,317.7762028827378,728.7911774153255
-522.1885149362932,317.9352786119623,764.4190421805612
-521.5063247898111,298.7972447267926,788.0417879704079
-504.67488897839735,326.0664956942483,823.523833317188
-491.1422351159673,310.0283990965315,772.7603208027207
-495.2955392514264,267.50215415049996,772.841898099759
-494.0137559717131,294.8570612798459,804.1655407300149
-520.4988451713889,384.0118694967191,799.543167136586
-519.8452070788701,380.31335879224815,819.1890196958187
-494.53381124033183,356.51726124619523,776.4771863990252
-516.3455410359298,368.6090560996875,811.4310187474827
-524.8448756711008,430.2610983363331,775.7746019282835
-539.9591093798597,453.62687564050924,779.3935747681421
-521.7000708702768,406.8820647213881,760.2025156398976
-480.2108773128438,356.1246705041987,745.2963040385862
-455.0442811765486,337.1497912131054,808.5309458377734
-426.95313894143266,379.70254878067436,832.3566151540027
-407.76717839425294,367.9472602774648,832.6829243421556
-344.8292740130422,317.5885750995498,880.8910280269002
-317.0103960067914,360.0730116808493,896.8628430707736
-327.5899517164373,402.8888560313665,916.1834061580664
-338.44177165494847,445.6363793956142,927.650114973003
-354.2106631724391,472.6996476880485,911.624254969842
-400.86166019996637,472.9545767412929,899.151086252696
-440.2675735342854,446.0004180836474,879.0280065057894
-457.48038320935285,403.1866131655561,835.7441124135154
-501.5861685692872,372.18826000724,792.0176614848089
-525.3608520748676,337.44550891486904,780.0043847797159
-537.4669229553416,337.397582252859,764.1253639112235
-540.1202245415102,333.86732472352946,799.4187617586027
-556.7334410833466,298.92776840205374,771.8150438732902
-611.5258523552895,237.34200771925174,759.4285510342472
-629.2566778665498,178.9520376479226,704.414861344088
-664.5368194031602,152.03560849015722,692.2037596936773
-645.3773714775178,97.79333411511578,700.5226045591513
-613.2145024039811,132.64774413280784,732.2837054447748
-612.5057996359615,175.30553247031352,743.9247857321309
-595.2654576231436,202.67879449149305,791.185573055019
-551.7327527749029,229.6717023652318,819.219611182208
-544.5712858111588,229.47489713612703,803.6291700019885
-540.5270913104883,256.5269485502185,803.5985785155992
-505.7374332723204,271.73397643435834,804.067647973569
-479.85499635451464,290.5609968745698,769.0709875441665
-502.78535483574933,317.82107039610884,768.635568721225
-488.6531078400881,348.27489509669465,725.5729530471671
-517.3825924245283,395.382724987636,776.0040380762035
-538.0675358047856,368.1430457903566,740.4648886214967
-492.15175416681546,321.3605053713552,741.3102333620554
-538.5294672492646,283.0650629929691,744.6691785676047
-519.3169940805475,294.48792401074786,740.9941213360323
-479.41855781536003,294.53279152411886,780.8374929257188
-548.071971570312,318.4176043807009,795.4265727847941
-551.7347922073287,306.909087201032,803.2600327328905
-494.09533326875135,263.94130513478103,808.1934197712777
-478.54466102083796,263.85666868910386,812.3508027715889
-482.31761100885626,294.80199660434505,808.2658196223991
-504.92064058572504,349.1763242289671,811.6675929088935
-540.3659761488378,356.9771532582483,787.5635410665212
-547.7181300444087,368.71102772098527,795.2623984745047
-540.911524322781,376.1488377784463,767.8677224128526
-526.0165295998124,379.7616923210271,752.3792528539309
-536.7317075657845,403.23453982756604,771.7630383464283
-542.9846073837651,391.0764634202302,704.9920207206336
-520.2816456180245,414.9612762768122,799.4422152315012
-476.7672956616174,413.9201460233617,721.6052372624699
-511.13988976867745,508.943421045923,932.6997496596699
-647.3219702956668,613.9283037530656,871.4362193001689
-689.2088531761611,505.2510286387299,796.6074041594226
-463.0867829483056,219.27467585770881,600.8035363758266
-430.6190187270883,64.97203428285908,680.3026517720119
-446.95997104005966,49.41096092957331,656.5626386176727
-656.4729035909307,563.4207400080558,840.0717880213937
-464.5990220921518,455.4674634049345,619.6071033431397
-147.9659210841623,280.40156424467074,789.7742858162575
-337.3292612665895,319.4699515124941,1096.8475473275787
-913.7065154767429,835.9847654397781,807.8273416508187
-954.7531521977435,486.0885215644486,584.6889610621365
-580.4877302646674,99.99775662433146,571.9751393187277
-634.8120917948536,-281.13575991801486,305.5732589620309
-747.7477018145852,-74.89285331892135,338.50703349257907
-798.711078706796,755.7086262893038,586.1175834765186
-549.7748976459852,908.8608240326718,624.6506197325285
-560.7052357328956,746.9084753713042,676.0534943125328
-691.0739141296978,498.92878811826677,521.877501491335
-665.1048013337889,316.95839047992945,530.7296579361964
-543.8187352459811,246.98036536431914,599.5003390556409
-527.4053830818884,298.31389924184106,729.085875400876
-600.9860655779497,388.6077304686106,810.0962102246946
-629.3341762987361,489.87778701187466,860.349864632673
-692.9889411776703,521.742898951222,906.3839333513484
-616.6662417849113,595.3337786094131,981.8470119765669
-347.18889732987316,626.9449812117289,860.1887494710223
-342.0260741435659,600.2100615398735,903.5277082387973
-223.5687008305589,452.16154344246,462.3189366399332
-649.5357741940419,555.5679054519128,1264.0606119316997
-448.91680645276426,477.8390174014572,1400.7637674435207
-332.4519586199161,-5.699581406494573,1082.3267884547734
-315.1902025666257,-334.7371426531996,648.0582054014368
-323.908776187587,-188.1784299429469,588.5638826714526
-315.4288161604626,142.08623740013155,320.7027884139844
-385.70459841026246,425.30833668989925,346.16714168446924
-532.4295248632307,629.1771400019376,515.965186888489
-626.2383178761352,608.3800278382527,703.0117318350304
-604.1318900949866,469.91480271040575,813.6988676051456
-581.0393967358885,504.4862414789965,806.0795480617745
-516.8768131828913,589.6009340600511,861.6979294662297
-495.6636568043114,531.0151784758302,819.0421805611498
-431.21759214410633,476.1768799743032,800.5700213630547
-406.2947081827128,383.7640784569655,871.8981507446479
-382.6821595549959,337.36597105025675,895.9563153574361
-404.0768254194858,344.7048686350589,832.8165071660558
-380.43878388644447,418.03266151030175,832.9235773684184
-389.51017931709606,456.368892537207,785.5628578566585
-379.9493201042151,487.66908169456445,832.6961806529245
-369.2361815706689,541.4346387400387,797.3538364273223
-410.2787394268176,514.069534448563,730.1127296273448
-404.897696970933,479.6663488551137,781.3289961403742
-411.4779256932796,498.32103725533193,698.7503377809957
-433.80971075749625,572.0740517913865,706.0168355146764
-417.85013230817873,572.0913869670071,721.9539802073084
-429.9837355264031,568.175676709172,706.0871959333717
-411.64413943599504,590.9653143530156,674.8879586810991
-379.2620313766679,598.8405826658442,718.5175365695727
-377.9812678131676,626.19548979519,749.8411791998288
-352.53526943451647,679.6704277199656,695.0977143061087
-333.4043735628375,698.7972447267925,687.4702370330339
-332.8853380104317,656.4463909693933,711.1684418226408
-296.94849923266355,583.1175783779374,762.9741043067716
-229.9939326885328,555.9411215858628,811.1638530996825
-202.03739299352992,559.8405163842904,839.041874646286
-205.4565014556449,621.7699214308659,838.7818470119767
-243.3644516730994,653.1200766826593,849.8824777064544
-243.8365802797082,669.4457332524358,944.0104418940211
-144.4917479465465,645.2886561669889,925.9573860594596
-3.0561812647540196,520.3193751179048,920.6487434546967
91.94393600261049,523.1021806631215,882.8152325207897
38.622567339509416,535.2622965028834,897.6745371763038
17.600607750862938,582.309963137259,948.220850137407
-92.9509057629262,637.5408523807824,969.926529446855
-89.06140221176447,617.2138293912806,864.0881442694499
20.220156730381937,394.60672094955976,729.1144274548394
156.8914970963581,282.8947703854018,472.5140593372865
87.96316785038724,383.9486470915145,463.2907261909011
-84.80765602932705,526.4682638821616,672.1520600816793
-499.44680395445954,567.6892720755814,591.2345194332418
-1004.0095241494292,914.4845589472452,853.3056650334213
-1446.0085758133514,753.0043388924863,580.3551671569803
-1266.161227330434,372.69811811372904,180.09615923888384
-1067.3981430967763,302.2275700672503,261.8039799523793
-1094.2982567951342,507.13648391652606,221.46298685075945
-1058.7509496107234,746.5240423590116,197.6403766831691
-950.0186098208869,870.4776860599695,308.7404975195403
-745.9560604283829,850.5442735286771,421.75360597145817
-587.9795852814162,762.489739105607,663.8189391892237
-576.390510520922,727.6501149730032,671.9593337174265
-564.5852559232766,704.4505514115422,683.9879061657142
-540.7993555393534,599.171990435062,614.0567879959008
-696.0827601678454,726.6446747870068,886.0232597268181
-529.5100773454748,636.7607694778544,931.9930863240761
-470.10854879087157,599.9653296487588,764.247729856781
-384.96734358827945,490.2724171862971,687.4008963305513
-343.10799304553547,595.0808889885946,762.2419480658533
-451.36310564769826,758.0233820927637,716.9002666557898
-421.3253251620074,722.8309361504694,701.7707372038362
-445.39266722071255,717.9138645714899,564.0652006546578
-589.197126439712,718.7061840689737,526.586550962867
-708.436622088073,711.9597416039117,532.6722173219193
-720.8129177649861,615.296762910882,528.8880504555582
-716.4311971978199,548.7511025681554,446.76112637852896
-605.915373751485,475.1989721260574,538.931235437178
-586.0553807875268,449.161538343879,672.7536926473363
-582.0948030163206,541.8445646576558,656.8022719277226
-522.6677815563929,662.5208404501028,790.722621894327
-674.1751770482275,832.3025701947149,607.3470553145061
-734.256856316887,696.0134194653629,457.77202204626457
-798.4265778833751,596.4462889977721,516.015152982925
-666.807727409462,506.76122835015025,553.6110700392081
-548.2330867319625,599.2994549616842,621.7933749037644
-538.373450668679,692.4658267604127,664.7978667536826
-652.769294305395,704.2506870337986,584.5523190895974
-797.6373175345302,670.0198334803424,523.6283542290181
-835.6084901571894,602.8133970316062,330.980508124589
-773.7902341778283,606.240663223425,335.81906155516924
-602.3902148032203,544.6008575813352,515.2024391611815
-515.3513177282763,556.0991775988743,579.261011660455
-639.8372532924088,718.9570342573662,510.12833128540336
-722.9533020960268,839.7464985494537,532.0236778104654
-732.5080430116299,938.7558442485457,347.0899848572143
-701.5341630424253,856.4576078477361,257.56501965503
-631.7050164939099,709.2870654096965,302.27855587789924
-561.2222318528754,597.0377244012992,358.6576455772359
-485.0698250676838,594.3436341666115,556.0379946260956
-432.30155047850184,586.9027649605116,635.346423090454
-497.2768478532425,612.5832980681477,422.3562582533281
-583.0625137024366,663.1897742858163,381.65428561231414
-556.0420734909476,675.5752474086463,491.9070222757007
-485.87132201108443,699.4100941707923,622.3899088883564
-417.0180438783887,659.1313037581642,505.8190105693586
-451.03475702711944,612.2263973936055,423.0506849943662
-546.4179918728619,651.8291159570292,441.11087884241823
-532.9118506319692,612.6118501221112,394.3507721801023
-511.5916240510267,646.7386926218435,335.68547873126914
-455.20539633819914,541.6661143203847,317.26124619518396
-466.55687722106944,538.9424523155207,434.838604416391
-479.4613858963051,547.4142546129412,505.2602060846467
-631.9507681012375,847.3811138360195,600.0795378646123
-653.1435301555578,856.7635227116294,764.564861599017
-412.38853227146893,587.9133037275727,765.1532378539054
-171.58050914430515,289.05283659557546,440.10034007535705
-439.47729346922756,842.9779792283808,708.94240132971
-467.4797203938145,845.7944354086258,567.2273406311024
-508.57734292546394,868.6197631199238,488.0422978285144
-602.8327716396527,830.2702757822499,443.5887892399546
-528.1426379038714,729.6660939260604,507.84110781969383
-317.8414647203684,500.76223786920104,621.6526540663734
-271.9991026497326,418.2080526989339,516.653495332249
-420.7991515961108,714.2418664885563,607.6162603947322
-295.6871102772099,640.3654662907313,676.4583216490852
-358.12433399784845,716.0151529829249,859.7247785941174
-351.0403654662908,549.737168146105,876.0902040962001
-350.6518535891462,618.3528524011768,762.0512611340265
-435.7859207782475,781.1168951680748,717.0552635201624
-480.0538410160453,707.5963759285792,677.3944211325988
-500.5664523563093,640.7845696542653,543.8758393539078
-546.1161558738204,559.2184894943738,468.90018507849277
-688.9233326365273,727.3207466362112,536.8377580519342
-736.2830324320743,704.2251941284741,508.73335950604957
-530.7265987875575,439.37430213171683,493.0827550692643
-320.51720006322245,127.35541698745241,399.168931286423
-305.8771343934983,351.15559339835727,775.3962872132687
-411.827688354331,846.9253006888184,1172.4493073577626
-523.7823313771778,599.5778374878272,1104.882911085845
-578.0088001509181,220.3382398678448,618.7015953460152
-836.6180092080376,594.8371768136928,303.5195505090934
-977.3592409232511,1076.2696741496843,366.5053815523141
-600.3946301744226,686.995049277786,432.3352011135302
-169.79294662295484,109.98455129937341,750.7762589671295
-69.93886801303198,106.26156740579098,854.3243615301863
-43.741950615143814,369.463578286163,889.1507293520215
-44.54579290583431,590.3871352602571,931.5648055146253
-55.75023071079319,524.9131966573703,955.1651175477866
-151.30447196545202,546.1589839547655,1083.1731529115448
-257.3274257774062,490.5304053881805,1258.3807926254126
-226.22608128157935,451.7414203627131,1274.6758577087996
-133.2789484686412,324.5736311584487,982.1519071242474
-171.97921818357952,436.82501159927193,953.7211993902098
-321.13208893964816,567.5811821570057,735.1919360841879
-302.7374281737393,540.1803877980759,715.9366348345256
-282.1177466311126,699.705811872556,833.4456720694633
-265.82472098015126,760.6012246791719,735.369366705246
-114.89448486486212,799.217877664646,859.1629149607664
-56.61872300938649,724.5175467667349,777.8711384621661
-32.502230629215894,453.25977780383727,751.6746289507631
-31.24349293591594,245.0327073975313,830.8882238073145
-58.25332809879011,246.22781479914144,940.3690352974768
-138.01858942656258,572.5400621007175,1016.5663095960396
-139.41458092212937,819.3511545736823,925.4465082367578
-4.042236645541546,728.6157862266932,849.2879831542883
208.99287728225235,553.4672900531783,919.7881029709433
288.40429708412154,653.8695680991981,967.7341395889525
260.5843993616577,707.9318625626489,931.813616270592
187.6787689985877,630.3406362009454,844.6421560879609
160.93263244838963,540.7860992285848,758.2018324300348
75.73840200272265,565.5040202311698,851.0327175946934
-90.1276174840542,851.6496459035451,1118.3839537456727
-319.846226795083,955.2150836422225,1248.0306730636867
-385.7321307480129,766.3921930526735,1275.1551243288995
-383.37148771496896,322.7422208399403,990.1862511663005
-412.46807013608117,-16.55682623525873,665.1517082795859
-512.5328221156053,-10.020608464664285,443.85187602290284
-547.7150708957697,614.8766398311351,633.5231705016495
-347.5590543151841,987.0057562980224,886.4413433741391
-172.16480653434152,1074.984831721332,928.0182325258882
-1112.5715713316986,827.3243156429567,961.8626136346256
-1832.9194985035665,-123.18171852773374,43.76693366236177
-2171.2919294560324,230.0591945261634,-123.40299694594995
-1863.1744785426217,1061.9324641952146,149.20487628293048
-1294.8968302121523,-307.3516440374644,-175.18010737611723
-1107.513778915328,-2002.8042195856895,-531.6443433792376
-568.2592934386362,-1648.615990169936,173.82082566421767
-762.3571759979199,-696.3387089373028,489.51986662111943
-995.9139971345975,105.3917494761208,809.060178552309
-917.8730759229708,171.6885990628808,935.5937042721011
-875.31623949055,439.8678447787981,1108.0134398596872
-489.121157581845,744.1888922312921,1297.2217831777416
-290.32034384830706,614.8022005475876,1281.0184925535225
-397.86165510138534,569.3820009891248,1299.1796383066594
-209.0000152957432,277.29550865993997,1251.9769748079111
-2.704725874789047,-134.12225377677396,1287.8505911804746
267.46238521819384,-622.8222685626591,959.953704883931
342.28406234544934,23.945791886118098,1096.2561119240518
-18.181336134153867,664.3981379981952,1010.2022607108444
-242.03576144758915,635.1404404154325,1003.0234585714796
-393.1413887515105,332.0012440537799,1150.9129009396686
-528.4658879433854,778.0434705021594,1155.236497682695
-574.0563801094156,967.7973619941571,1134.2915266681284
-433.5456042583349,557.6889151749069,827.7322021281477
-278.9168574385749,91.20035894010698,717.8078140853402
-541.2459912406377,200.28654025584683,572.2249697909073
-684.9280845140798,456.9929588595494,596.678784294331
-839.1203927946854,431.1360148470681,598.3806906537911
-876.5042088786693,-80.16499008325984,69.72197437453157
-1238.4759321480833,-279.11876124874453,2.177236874977694
-1301.1680849219663,-59.647178190309646,259.52287478394766
-1169.2677927732714,153.95879326783358,464.8580300102482
-1084.508981150546,85.77913966543112,701.8349793252538
-682.9600322230324,-797.7556046152357,467.5041935829259
-729.4203423187328,-789.7294183028864,458.9314393804205
-822.2461289023266,71.23044056838982,603.7719302718054
-912.5664727506337,178.75115355396596,865.0058888611301
-829.1098387318809,-209.42115809170312,796.9224964692328
-654.3569924490015,-354.308555928885,756.8578464613299
-603.6770966639984,-13.70529181728725,815.3375515594012
-374.04924209592474,-104.71057904585156,791.6118144320437
-475.6109374761005,-118.73269669051103,864.7060922945145
-748.0464786649876,93.21052551075037,961.9503092289417
-814.2015876981437,92.55790713444449,831.4490677244523
-873.3451280508637,-148.76333916271102,619.4480276139151
-946.4730565483627,-44.90075611957193,488.4889335297987
-922.3547286790089,-12.064670402227062,288.5837671376056
-941.8394660765911,-23.556260292760527,284.4059898130351
-1057.4559100202416,-56.426200588376254,400.5241341334707
-1081.8067331861544,44.847730876497074,454.76181978555377
-911.7925081449833,-6.549688221767882,481.0297094318652
-875.1846960990757,60.314480480082395,634.4133827555792
-874.4606975878614,227.55477150708958,731.9757511484555
-618.622057481403,124.56343399631884,689.0599746090663
-344.47747191956483,-31.887647667654097,740.7891583772238
-377.0166162756905,143.69942844906265,877.0711710930849
-448.35392310320043,295.35060392692714,899.0389174692685
-507.70854471200664,249.064665303646,862.9837916107948
-368.27968776289566,-51.189549948249415,724.7989884415168
-297.43490386625405,-137.3119260909689,675.1306511397879
-294.27582303844844,99.05686447461672,717.5518653158827
-455.7978514579393,377.5723616117635,1000.6903478761863
-285.9161895244554,287.52122284368266,1031.0146686177238
-318.1779710706511,231.464363467647,1223.0272315214677
-652.5592327655214,357.8520697689833,1217.5921441062953
-453.06297257473256,-122.91659231235948,849.3593632891968
-423.3525209934076,-127.29729316331266,818.4221931036594
-568.5040253297508,436.12344684474317,959.5580549932955
-17.725319043710137,7.865366868400526,714.1521314618143
97.50934314980142,-91.5365593755258,947.7660567064187
-85.71622317509039,138.1807243044261,948.1719037591839
85.90568644746168,276.41855271677895,981.6726405041478
-7.2456649314495785,651.6934937007031,1328.302733349309
-204.01768187913305,637.7019675424331,1321.4808318844869
-114.68136417634975,241.28830946347634,1202.4901469920924
-260.9300831578572,274.35668653413757,1310.0804046233934
-485.2329796617602,381.14850637067707,1373.0784722611697
-443.10034517393814,-10.291281936237146,1335.7772531904372
-232.10066638454524,-306.6643553099173,1261.450138426476
-180.98637149281356,134.45774041084368,1311.7425420505474
-105.22961459825731,295.7329975067939,1241.6982353810936
95.56035955193671,-279.2656003834133,1152.4526724212653
58.07100283990967,-310.59740074337316,1077.432150632479
112.19937491396146,-316.8237879398164,862.4045928018234
329.28981864347156,-604.9425644843041,850.9307459733957
313.7187520712986,-536.3452351210659,720.953638602377
243.77845645556843,-670.1238445340663,842.0204657043946
-44.27414050669699,-267.8835280141537,1005.1067387945936
-269.47020644154736,-23.283486205788932,902.793512565453
-273.5551895907369,220.98473994687282,956.8527478802652
-404.02074102777203,275.2050904233352,848.7505927100489
-300.8356574365355,-409.37017228105424,966.419725390424
-540.3200889192539,-146.05599261725465,781.4115931536254
-617.325998174708,-161.88810653994994,674.3464893720079
-460.78732288804025,-170.200833108146,747.3632688022924
-183.4469467147293,-187.8184701197657,751.5767361943172
-38.057950472383546,203.83107381215808,976.1366011838907
25.284373358894225,385.2875344791545,988.2467509292165
101.29473367561809,156.57436535412197,1005.8552104949193
72.21609825985429,-20.39595580549933,1092.360795990476
-146.45266222410305,139.88365038009925,1084.6211499339736
-153.79359924133115,11.595600944257214,1010.3725533184115
-39.28150795633576,29.73869772042441,976.7056028307323
55.71821162170569,51.83084947459123,934.8829620716556
128.9869629282171,136.2402043511291,919.9971447946039
273.2023677810466,58.312369667521544,985.2141149118202
295.27922379201874,51.14447849163579,1067.9895785003034
186.07373567936045,40.063630291689826,1031.0656544283727
261.7825659119068,-134.65862450480031,1028.8630674083404
191.56388777003363,-17.483952216098263,1090.2091947810925
172.01490825103375,-69.60348335058355,870.3165708983191
319.49238526917964,-160.2922506666395,810.0370666843418
286.8451509944783,-134.47303615403834,640.7029923572271
348.31058516414885,-142.72152060081683,637.7264407315445
291.0759535621237,112.75308081760848,600.6852492951213
385.75864336955027,159.93025141103234,766.7786654973921
373.34971677382185,271.8022974206279,719.1201888514427
240.18191737239528,598.667230909638,810.213477589187
-44.27546613777387,706.3115335002269,915.4787822548985
-260.3610815110155,852.7876491972285,1096.2051261134027
-197.921818357951,641.9735587585975,940.86665680941
5.197350777278684,462.4688349232409,948.4390694069841
24.502149051918853,479.7703599088374,1168.452019802889
-81.7977596834801,655.7856148633837,1287.9219713153832
-45.87468707458715,857.6445575196424,1393.7481198982325
82.36390612492545,732.3550855796832,1341.151157632831
95.85536345235121,472.0103195280754,1228.4113331259912
-95.06620507512761,581.0740670871297,1142.765368397975
-172.73482789739617,554.4859865499432,1129.9169441144531
-182.54959644730874,531.8411486083423,1184.7980706969252
-58.52130951956072,530.0729606950387,1096.3886750317388
65.56234799855201,478.1133210627483,1019.9303533826537
78.08517689527007,492.71667694880523,933.7306827509905
113.46892159911897,309.12289109940707,770.0458362437735
104.40568389817116,438.27810720276557,926.4590864362449
97.93476875385582,433.78931643323665,851.8097413489827
17.045984102624242,625.6479021888209,1034.4103236069402
-77.79894255428715,516.6402390214804,876.3706260547691
-83.9784228049334,501.6351149475102,923.4244109864226
-114.63445723055274,520.2296400911627,813.0125985938114
-68.11989823232194,500.63171419393984,825.548989716162
-74.67443010610148,561.7738983240965,734.9788153956755
-148.01690689481117,480.2118970290569,636.039830115279
-253.73292612665898,539.5206314082792,685.2758077427053
-398.6560140312951,536.1708636486467,616.3980564208982
-496.3642018426273,541.4295401589739,685.5603085661261
-500.9896345846951,515.227932066506,779.769850050731
-542.4207043179883,419.2481632361714,826.5687059291399
-621.9147211331087,326.5488214629869,774.6702492696284
-683.213941560064,222.84368260313158,805.4993295365902
-701.9277735006349,237.58266074551454,707.0538869032749
-654.241764516935,268.4831211473847,742.9856270999782
-712.1157581844973,233.15709238119035,636.272325411838
-815.9850713546421,136.46046305313232,548.7011364737194
-874.6340493440676,190.76137111042,512.317661994667
-816.0697078003193,240.71115008693084,524.8010278739428
-803.4446013674395,198.4072032753285,564.3782535320421
-816.824297797923,300.44306669453897,712.9692606547599
-721.3584659389293,233.82806564932983,702.8506166733799
-783.0941249050389,164.76982455782556,713.932892476024
-845.692463787328,24.98427087741482,603.5771644751266
-786.7018808665549,160.9989140022332,721.740859518796
-694.9100865229207,203.5894010696823,805.3892001855885
-741.8231506171833,-12.612563923460103,385.4812805596203
-943.3017391260013,489.8339392147166,580.924168803822
-828.4959695716683,439.5323581447284,680.9287575267804
-673.5184798070698,235.74105326487643,526.9526290833261
-596.995916036567,292.9369356508084,500.4338892486222
-617.1200154996865,429.0343797321206,558.5424176451694
-556.5376555704548,475.6282726517211,629.935808864393
-576.904447492263,480.3597558799387,708.1072537512811
-642.9127173907502,531.9410807972142,793.2861884537534
-602.9418812744414,567.7575930618509,938.975083234336
-573.0397230450766,474.60141842525235,931.8880555541394
-547.8353974089011,319.47301066113306,913.1660658838646
-531.2395160426853,268.44947051235647,846.8681965808917
-642.6384137294592,454.7720169476835,817.098601459214
-576.5404088042299,544.2337597446631,927.6756078783277
-536.478817944966,567.4914471302637,967.4435204682538
-587.5574227692433,641.0068677886945,923.2602366761332
-634.7243962005375,587.064899838375,907.0365517276543
-666.1795822222676,556.251115314608,894.8958104959391
-673.0871398489802,586.4092223134302,800.4996609443593
-583.9843371589687,530.7806437468454,715.6806860650682
-485.2584725670846,490.0246261465435,572.0852686697293
-402.3259726818027,510.2099085824416,738.0940484263231
-353.2490707836009,526.0114310187475,817.2678743505683
-382.43334879902926,599.0414667598009,738.092008993897
-492.2404694773445,638.0150204198172,673.5215389557087
-506.0372298389359,649.1289074250636,606.5588146818741
-386.10228773332386,361.54854104102833,570.0794868788016
-300.90601785523097,240.2838889936931,497.19730998863025
-590.7409767861604,589.880336302407,397.4853798187965
-518.1504387329006,615.3181769513545,708.5324754120929
-590.3371691658213,574.6569929588596,856.7237537793234
-615.1927518571582,438.2383382704594,723.3744448919867
-734.4414249514361,398.60094935579434,513.7167126388727
-701.2690368270512,441.43208944950624,572.9387711399918
-559.5101283312854,459.4351791896316,547.5284628287948
-514.3163057721038,645.1826056808391,590.7501542320773
-481.7108798621344,890.6833628201272,814.1138921038277
-505.98318487964804,810.4694263586445,908.2112648050049
-629.2913482177911,656.9460519137525,938.2796367770851
-638.2679100406358,470.31963004695797,828.885501165026
-572.2912513447508,303.8693131701448,877.5300433889249
-507.38121580764084,218.25088077987897,878.7914323443787
-380.77121137187527,241.29850662560614,970.8769049573506
-305.77414305598757,312.6867992637649,1230.7872719022298
-304.8839308020578,387.28209939173934,1352.2048813815118
-297.37168146104943,572.5451606817824,1308.5304359796671
-352.2966558406796,757.0923811903149,1130.4675908694612
-393.9612405867448,828.9844136376847,913.7513829901139
-414.1455033064299,750.6681690485539,792.0502924036242
-449.47051235641123,653.2312257498739,681.9607103343141
-410.6896850606477,610.5142938720155,698.3842596605366
-372.75522222165574,698.0171618238645,996.9286147665106
-120.1164515915221,783.5805295386295,1267.2931123268395
-117.52229354570625,915.412500701055,870.50521839772
-313.1966573702539,859.0915348258582,459.60445208098594
-590.7338387726696,527.9682664314522,-34.013755971713074
-876.4583216490852,371.6885990628809,-22.06798447991924
-662.0721653163926,471.19964513875794,475.310121193272
-358.29564632162874,621.2926942431923,652.0371380644767
-303.0025543891135,612.4935630414057,582.2518393131191
-576.7800421142797,582.6689032442272,468.3617749180404
-793.1719802378999,479.9141398948673,469.3916882931481
-837.8539052581667,237.3624020435113,563.7317534530141
-1096.7047870577621,305.83838517740514,638.1159723249021
-1175.8755538333683,418.8953414264811,664.0208429993934
-1037.4592750837442,226.521798983343,474.4372441149628
-815.4650160860233,16.872020516690206,588.358919712644
-625.2451142846946,52.51518102512071,846.1880458668354
-490.879148333019,353.571301106902,882.5072782244702
-471.15987620645177,520.5946984954088,972.5053917494762
-465.60854114299997,543.1661168696753,905.7935176640342
-547.3275787348382,321.46961500614384,705.1612936119878
-620.5686957319779,240.92834964029512,720.034874294484
-549.2324086206809,147.20623250549374,686.0976990103655
-523.0083667715276,-101.34857469166333,604.9119729979147
-332.0777227697532,-273.1972691999817,592.652944685494
-292.99098061009624,-85.9919544390796,792.7630740364957
-256.38520799661455,77.41930220819548,926.1970193695097
-234.18904518872398,60.6885123870027,1236.6302458025932
-415.83823221997324,133.45943823833827,1425.971152228335
-313.5617157745,262.52084045010275,1238.6900725528087
-352.7973365012518,273.2319395512229,1104.6279820326006
-391.44967955418014,186.54586428596923,896.333610356238
-391.14070554164783,147.00738784396304,802.2811051684317
-560.1841607480638,92.38516720796603,603.70156985311
-893.4213008519729,304.0222706020915,613.6947887402937
-966.2463736342178,295.9644730871399,514.5151504336344
-1053.5401997624062,197.44765031891626,238.81651736321786
-856.6197427255996,-5.786328664732606,183.58256897105537
-666.6302967884039,-375.8245680227193,73.86304191543495
-752.278300948846,-287.43760611421845,362.7038795103323
-639.3579866723092,-45.579887117415225,681.4732859845107
-565.6651353928203,-294.18404857928044,636.3202520738479
-623.3290675205092,-255.95692718716384,964.9962015571068
-627.5639489530065,-271.46986993519704,957.1362289874729
-524.1096602815437,-420.16998669270345,861.0718237114611
-435.81447283221087,-462.4229476936569,972.4258538848638
-319.5301147690598,-424.5251946383322,985.8137080450512
-274.3087598721276,-292.8370034619366,1040.987493180648
-275.90155659679914,-145.48801068662593,1075.7904075295846
-347.78543131446526,44.64439946362928,1074.0772842917816
-380.99656865494336,176.58527631760083,1088.8325778935723
-401.83752861578625,217.82361968664122,923.5447374995539
-454.27949401681514,310.30780133888743,836.1050919529096
-400.45683286341415,189.144101196637,747.0542947897601
-489.8247617687998,278.4671625886516,706.1677535141971
-362.99857749588296,409.70158005027207,782.1926957727665
-294.7795628476595,285.29824149939077,775.7847990904132
-375.4748053616679,369.0730269765925,986.2236339626683
-338.39996329021636,135.69873504203784,881.6007505111329
-388.31201276684703,129.40402685932506,998.61318595035
-342.01587698143607,98.16563250447402,1007.2613991526159
-279.8682526652833,32.16062569786829,1035.8889121157583
-328.04474514742554,-10.44872611952094,988.2141200104012
-339.44313297609284,51.4717054243804,979.9850101716693
-307.68611095532117,-10.32391285505244,1019.9201562205241
-303.72451346790194,5.121269750628401,1019.9201562205241
-290.17554414606417,132.9730336047478,1051.0928808512592
-251.91477211891933,190.53601382735187,1031.8508359123657
-334.03863704730975,214.03129509057635,991.2916235411685
-271.22819719272127,158.7810312390062,925.7004175737894
-351.68890497774476,225.1747538659991,924.2707754431942
-335.42137223210784,224.27332473372664,838.1761355814677
-425.1767932984251,244.9807018706694,911.3295569842913
-473.4919671855323,260.2662479032086,847.7604482672473
-437.9385417038439,306.5593245399806,863.8352546486313
-338.5937093706822,263.0929012455834,849.7713286392399
-293.9331983908878,250.75331535233747,807.3113652470519
-378.3279713255801,286.2608536044419,809.8514783335798
-430.8586520371381,275.447782882024,852.2726925096746
-478.98925728969635,245.43141643680568,914.446829447365
-431.95586668230237,202.79198299113358,946.692295534153
-404.9813137003972,183.27461467473603,951.0862526958748
-530.3187123023664,211.74815048971874,996.2086951201481
-439.30904029408623,214.5268771700836,954.3911529421363
-272.3458061621451,135.3295977729398,898.2904457689426
-211.735913895163,185.79229400457857,969.6716003936107
-247.62686544334713,271.71460182631176,1027.7107880876754
-302.5396032284215,334.67697939663395,1097.3166167855486
-229.73186562179748,276.0800069340703,1098.6116563760306
-164.03256973584254,283.346504667751,1103.496097036195
-189.80691673507266,299.30302396842967,1134.4546812622048
-171.494852982415,337.53320450918517,1099.2744719144664
-246.23801196127118,372.4727608306609,1047.0140159993475
-159.21645006194777,317.31835030311066,1013.1849306338047
-175.18520595718215,380.0849423605411,1095.1548184140356
-172.096485548072,406.89736046458273,1067.6326778257612
-206.52312461441983,398.5081551804133,965.1073506243214
-190.53805325977783,441.0140058021853,973.0519596396324
-199.69000627125473,429.12513447507564,933.709268710518
-341.31329251069434,449.77438778787865,955.0662050751276
-421.6098259854283,462.142525735088,969.5196626778769
-448.77404618294736,415.9605981655306,973.1937001932364
-449.0096006281452,356.9761335420353,867.4236360021007
-431.86817108798624,306.0892353657977,816.8324555276267
-303.8213865081348,250.26589100253403,744.3714214334151
-287.0980406152968,223.4422560201496,787.8827122411834
-536.8387777681472,310.5219417436128,787.7725828901818
-643.5908286723806,338.67630638393337,813.5510087542638
-579.1977892552503,218.17134291526673,807.0727516532149
-550.0033140776923,101.66621629200596,784.3555138604928
-503.7092177247073,166.97445101028384,773.0550187882714
-420.0618967741278,302.2000377294999,824.8718981507448
-444.7614628848792,155.23037938541705,809.2987921461458
-642.6241377024775,160.27491549101887,767.0723437667298
-649.296140883992,210.79879469543627,786.424518056625
-637.0238562608026,79.58293606889204,834.146217107779
-591.9523996471783,-29.201001361321147,823.4147236823993
-532.6263300923354,71.14468243487838,847.5126572274937
-536.5338826204668,63.43695349584211,847.4800263086785
-508.45905584475844,0.7178914308148043,781.3932382617918
-558.3089026323975,16.613828371564196,784.5176487383562
-618.2202892934897,90.9035195505091,818.6913981838856
-564.7912385982982,132.83741134842174,795.802848067383
-606.7688762217476,75.33938704858438,818.9157357507407
-574.1869037846768,28.202189330709267,768.542774545844
-576.3772542101534,71.12999852141151,807.6111618136673
-597.3895264947765,55.39343200787222,760.2545211667593
-436.7169216806963,61.57321817338236,727.3187072037853
-495.91858585755585,81.97447650318918,793.0812254949449
-493.65787501338383,209.98404144126692,831.929354060765
-517.1878266278495,210.06052015724026,819.8028888560315
-497.72858213559175,179.06420643135016,831.9732018579231
-559.5468381149527,156.3275940305813,831.1237782525124
-712.8683087496751,196.3422779440482,844.3902861833553
-626.7471562664111,187.3045331484248,775.0679385926898
-484.38559548877555,78.01644802251535,793.2678335619198
-431.7254108181694,-22.136305466188762,888.5847868538187
-476.9957120933245,83.73216133949923,1005.2882482805037
-477.40767744336756,238.10475544655927,961.5903494057605
-341.8170323199054,159.00944767071326,889.3210219595886
-315.222833485441,66.0199966349365,897.8815395675385
-379.7616923210271,229.9653806345694,1002.3269923980158
-430.8127648075541,288.04127811230137,962.119582120296
-479.01780934365974,299.49167146783054,902.4896371339858
-498.9379655641835,245.4100023963331,894.5246337944151
-469.6639525220132,198.43881447793083,859.8002375938778
-431.0207869150016,194.30692438294426,864.31758041737
-306.3176517975048,43.96231128876834,603.7433782178421
-437.1635573819807,159.00536880586134,805.4748563474785
-531.7126643655072,342.70316570898325,929.0277515767363
-460.4854868889988,252.81518153497885,891.1514125618842
-444.52284929104235,98.35774703899905,939.0066944369383
-485.38389766128097,64.31125817684939,989.5295539251427
-570.108038932765,227.17849622450078,956.3143377198127
-520.8210754946899,125.18342145380942,843.5826709426767
-372.4615439523181,-20.346805484033794,708.9342436000062
-309.29624285561334,-102.5406229446345,659.1374220554421
-321.36662366863305,50.02768529518236,835.0496856724775
-418.2080526989339,294.941697725523,879.8682526652834
-435.18530792880347,330.4217036398771,938.3642732227621
-514.11644139436,304.51275410053387,1000.0632224052048
-554.5400315092311,274.4372441149628,1062.3505478425357
-442.52420551360564,105.58651527279959,884.0674440303263
-330.38091499135794,-19.755064165642704,811.6023310712629
-268.30772995875253,-44.294228916092656,718.4237226779788
-278.3794669943355,76.88395119638206,847.3770349711676
-301.9573452708112,295.20682394089727,1011.1220447349505
-351.9734058011656,403.7474570826939,990.3830563954052
-317.25512789790605,325.25378187250493,896.9770512866271
-283.74521370702536,255.1788837166617,878.0919070222759
-320.8791993188296,177.59275593602302,822.8528600490486
-437.51943834031,224.56802271927725,781.7011925581112
-498.30370207971123,310.2241846094233,788.3507619829403
-456.36379395614205,445.9484125567855,859.1639346769796
-312.131053927692,492.60144901673874,1010.3032126159292
-132.67833561919718,274.51984112821407,1009.8025319553569
-193.58700473658183,220.12002059826753,930.5807793691017
-346.39351868375036,410.87833256004865,927.6490952567901
-366.53495332249037,480.3220263800585,887.8669066398824
-316.2476482794838,429.77775285138154,904.4882809114224
-270.38591160080153,336.63993310661647,913.3394176400708
-275.50386727373774,395.27769421769926,975.8582186577477
-358.86362825225746,461.9406219249184,1001.8569032238329
-376.44761462884884,340.7993555393534,852.8671870618408
-319.7881029709432,197.17640580626414,850.2760881646639
-271.50148113779943,178.02205646168673,913.8574334762637
-292.8512794889183,275.19285382877945,944.6069758786131
-341.50499915873417,461.31247673772396,947.1746213028915
-214.38513661647963,370.4996099585486,855.1941794598564
-87.98142077059956,222.57447752290543,865.4362091030068
-72.35763487021563,219.64279341059387,983.418394660766
-182.17434088093287,340.70962051261137,1012.761748405419
-337.5434016713149,496.0674644246507,943.1926294912128
-384.49317554924465,473.0749032544244,926.8679926376491
-358.8809634278781,414.59621787256617,899.9770563852081
-383.6111210250188,418.2335456042584,852.4980497927429
-304.6504157892859,351.4635476946766,810.7355722902317
-208.3963432976603,358.423110848251,808.229109838732
-165.0645225433762,479.0484008300491,922.2853879765263
-102.91893765964933,548.208613542851,922.9828738662031
-46.58940616826338,512.635813453116,888.6255755023378
-26.121356426506505,470.30739345240227,932.2459759448947
-13.197473143224244,470.56028307322083,971.684520198029
-35.00950885368603,482.653097642926,1006.6383525464864
-63.00173861614314,518.3594805565613,1080.6646510276191
-29.75572698118114,424.05000688308445,948.0454589487747
-15.521100477737049,339.6695099753739,1042.7312079048402
-177.49486317957712,489.632035404547,1228.186995559136
-396.400401768188,610.2369310620854,1110.6850963376892
-423.055783575431,508.1225494944758,918.322770772894
-391.7545747018605,433.6312604202251,836.6261669377412
-318.93765964931964,350.8690531425105,732.0308158239563
-354.54614980650894,354.76640850851214,704.0120734399617
-417.2484997425217,483.4189045188724,757.5838844049701
-346.19773317085856,568.2684708845528,789.7589900730627
-405.89701885965144,523.8894015795405,965.6223073118751
-516.2201159417334,508.66605823599303,897.3023407585671
-594.5231042200957,321.5868823706363,676.9824557825558
-592.3205172000633,80.70921262612616,567.9380828315481
-638.7512555255873,15.366409528228296,575.3126704838045
-622.2848781184197,132.36528274181296,692.9032850157802
-487.042975939796,248.27030637373622,792.6529446854942
-299.50390806238624,219.4572050598319,764.1630934111038
-223.20466214252573,96.08469762864996,879.5358251798525
-385.4853594244722,54.744280666690464,873.3196351455391
-560.083208842979,93.40682088174863,717.5141358160025
-458.65509628670344,-8.462257753667156,664.4317886332235
-403.73216133949927,-96.4615847409666,822.5367480230253
-533.888738764002,91.13377147139951,918.0698811520755
-450.84203066286653,199.17504958370088,958.1946944165439
-299.83633554781704,62.03229441246502,898.1262714586532
-409.6781265773736,82.68348518607273,947.4305700723489
-402.34738672227525,197.3905462109895,801.942559385723
-354.60529334686163,178.10057461008603,849.8182355850367
-464.72954576741296,242.15812739314654,993.1638225081962
-561.0417420831783,381.936747003309,963.7776406825982
-544.3377707983868,404.3164587295356,885.4593566610413
-466.4671421943274,279.3451382480256,824.2539501256803
-551.1056273039213,222.10540806493557,838.8777003359966
-554.2952996181164,194.27123431549,752.5821763803134
-450.6880535147069,170.18757679737732,746.365986346
-457.3947270474627,202.38919508700732,879.5939490039924
-347.3632688022924,228.12887173499618,826.2107855383847
-373.4741221518052,260.4457179566927,955.2222216557134
-342.61954897951904,283.38525388384414,951.682786680467
-431.8294218718931,246.30123436647582,1052.5102863872985
-504.13545910173207,195.8936028103379,977.0308923026723
-476.1707616770254,156.3184165846645,903.0158106998824
-554.7123635492243,179.7158050914431,854.6649467453208
-555.0672247913405,206.65976658695888,838.8705623225056
-605.4901520906732,237.86002355544454,822.3113907399572
-726.4580667200319,320.4998648876018,871.2404337872772
-716.2619243064656,358.6872173474123,824.169313680003
-631.1196993876605,229.6849586760005,751.3116099789429
-653.3933606277374,137.3904442393682,794.459881814891
-680.9409941213361,152.90338698740143,774.3724921354388
-710.5341783381685,206.52108518199387,687.4059949116162
-545.7510974695742,68.84858743811598,580.4500007647872
-434.4144024717922,-101.04551503316628,716.1273217663525
-392.9629384142394,-73.57792926228632,795.1481902586511
-418.90247943997196,15.713622898747282,806.2325054937212
-523.5477966481928,105.18984566595118,769.0414157739901
-501.0548964223257,131.8870358379263,745.7409003074446
-393.9184125057997,-35.19856423957213,759.6824603712787
-552.8432237308358,-122.03963636919848,859.6350435673753
-579.8473484829173,-29.153482585796375,839.2947642671046
-634.7498891058619,-48.285704088552166,814.9888086145627
-720.6987095491326,-40.20149592368444,778.3524445146917
-531.5454309065788,38.527835703323774,663.1816165561125
-576.1580152243631,5.532674256754346,827.4589181830697
-833.5058353260289,151.62262342390113,929.0756782387463
-773.6984597186604,250.0955983949667,745.1820958227327
-909.871362799733,-69.72737887046036,771.6936976439458
-851.0949202836852,-234.12174391866745,612.2192593801146
-786.4775432996998,-270.6051505865918,483.79823895010026
-644.4524888723469,-286.29552395568317,584.0934467937574
-517.9811658415463,-147.42649120749695,648.3141541708943
-622.3644159830319,24.21173387446274,712.8897227901476
-569.0924015846391,173.24366628767214,552.275241800207
-636.9698113015149,-8.354565524414555,520.4743719822774
-710.563750108345,-158.49856984801133,539.5012568002326
-732.4285051470176,-269.99943915608293,598.4194398698843
-737.588269184686,-397.74030887204094,586.9996380007444
-562.7018400779065,-368.8089204774312,514.9536284052149
-590.8582441506529,-337.00601122707553,585.0672757771513
-522.2425598955812,-205.42794940168153,648.4456975623684
-503.72247403547595,-92.77245542565505,715.0617183237906
-536.249381797046,-76.51664941646742,773.3884659899151
-698.6116563760306,-129.46317039967778,767.2110251716948
-602.4412006138692,-37.562980222604054,744.793583945588
-567.5057231572455,-85.10612696486568,651.286626931725
-617.7736535922054,-25.837875319298647,744.5243788653619
-588.3201704965509,74.98534157943845,795.6458117705844
-516.8044133317699,129.05630363069957,847.5544655922257
-513.650431085029,196.49625509220786,1035.756349008071
-618.4303508333631,189.39087252017768,1014.5870404266494
-557.3228370544477,304.63512004609123,975.8673961036645
-535.4019976240612,327.32686493348905,936.8734481193885
-518.7255586770203,307.2180612135643,866.5476997751528
-515.2350700799968,338.9893592613176,960.6838216924231
-362.27661841709454,272.84750653893025,1053.4688196274979
-569.8357747039,246.55616341972032,960.1780424507862
-663.0755660699629,288.56541224577205,817.3525107962455
-592.103317646699,245.9524914216374,873.5042037800881
-652.4389062523901,156.93942375836806,817.9561827943284
-568.8374725313946,221.64245690424355,771.8945817379024
-559.9312711272454,237.331810557122,803.3722015163181
-671.380134908455,184.20357614475893,821.5047952154916
-798.7620645174449,154.23615607776358,819.6978580860947
-743.1518408426936,254.64557213727423,847.6645949432274
-672.2264993652268,218.7485022918122,789.979248775066
-699.5008489137474,253.63809251885203,773.7545441103741
-752.0070564361939,381.86026828733566,788.2334946184478
-872.6190901072233,437.55512840776413,852.9579418047958
-820.4779409890228,418.37222700922337,916.5974109405353
-598.800813733538,215.37018247821635,908.8292128300695
-450.31381766454405,151.96830722010066,872.0205166902052
-498.39547653887934,342.0933754136224,890.2826143484268
-474.1609010212459,558.4608403481312,878.1418731167117
-338.9353143020298,549.784075091902,891.9702446809054
-316.24662856327086,352.5403680155813,920.44785936074
-382.43538823145525,275.63745009763784,915.7908154160699
-555.9227666940291,284.6802934743261,909.2370993152607
-637.7917025691751,280.20883788041795,770.6637842688381
-665.2475616036058,225.23389740635184,656.6248413066644
-662.4841306664356,186.31132955698433,633.2498865565714
-595.338877190478,186.21649594917736,681.3509200389533
-612.8423059862441,230.28455180923152,834.0003976893232
-650.1516827866806,327.43699428449065,848.8127953990405
-581.5176436397752,314.1368357186196,720.3724003609797
-550.9802022097251,247.17717059342385,615.0917999520734
-639.9718558325219,221.73423136341157,719.8084972952029
-702.5559186878293,264.45830125476084,683.4056482081038
-665.4392682516457,275.3906787740972,640.753978167876
-650.4973665828801,252.9783361290553,743.0937170185538
-723.3040844732911,272.9555964575059,749.785094808115
-701.1925581110778,303.41859860400854,714.6915613384796
-605.2913074291425,240.77539220834848,716.3394227386519
-524.1310743220163,202.588039748538,843.2716574977185
-665.1282548066874,234.9803449699949,880.296533474734
-639.6802169956102,230.52724426792025,837.5224974889489
-577.9425185970745,203.03875431467426,846.3889299607921
-490.34889590227044,190.50848148960145,820.2709385977884
-557.6950334721848,245.61700478756765,866.1714244925638
-616.0982598542826,334.73612293698665,829.6747615138707
-614.7073669397807,338.9465311803725,868.9277174162431
-597.0499609958549,361.565876216649,818.0958839155063
-496.05012924903,250.86854328440396,643.3736291190162
-505.3560594086666,306.58685687773095,807.8803668938936
-651.6282318630726,485.4053117017535,773.6892822727435
-692.726874110935,527.5399856220015,690.5151096449858
-600.5414693090914,407.03196300469585,708.0001835489184
-594.3038652343054,236.6802118970291,700.8193419771279
-534.2548168844611,123.80680456628922,678.5517990343288
-601.8732186832405,198.15533337072296,712.6103205477916
-633.4120214344348,310.2099085824416,668.5881519173215
-564.3231888565413,309.6062365843586,661.776447614629
-462.4667954908149,197.25492395466344,734.3241575869437
-499.6364711700734,120.6569011844004,788.9707494404308
-457.24890762900685,120.32957228003447,789.606032641116
-521.7051694513417,257.26318365598854,901.9930353382655
-614.3259930761269,335.18071920584504,880.71971570312
-647.8777156317398,218.87800625086038,825.6652373644415
-663.4987482983487,86.64385901403641,735.6110394477217
-621.3273645944334,16.747921053570792,744.3275736362572
-537.9890176563863,152.89217010905867,898.1762375530891
-520.769069967828,229.46775912263618,823.6084697628652
-190.68795154308557,66.24780123691578,601.4755293601792
-167.84834780480594,205.15058659175153,1009.5098734022323
-500.0616928308852,587.9642895382216,1124.8999403466016
-642.1407922175259,595.9180759994495,1024.631245124482
-628.0860436540512,421.67202867441995,1021.5109135127695
-637.8620629878706,243.56533576705607,998.4153610050324
-601.3246113606584,43.81700172841899,760.2341268424998
-552.1029097602137,74.10634620385147,729.4723478455946
-480.5698174198122,194.83105851641488,879.2717186806913
-310.2394803526179,407.117619166586,971.3735067530706
-249.3389689649371,390.0078008290293,842.831140093712
-230.94532791524122,401.22569888799956,815.5965594774975
-352.89420954148466,518.3768157321819,829.0731289482138
-292.6187841923593,392.97721444122107,704.8115309509365
-296.07052357328956,320.72828131930885,842.3651297843811
-338.48459973589354,278.5681144937364,849.7213625448038
-430.4140557682797,274.56266920915914,754.1668153752812
-472.8209939173929,285.47465240423594,639.6802169956102
-518.270765246032,224.23967409869837,674.527998857918
-506.6092906344165,225.17271443357316,788.5139165770167
-405.94596523787436,150.14505463129615,707.8574232791015
-417.93272932142986,179.15292174187925,911.6599450372962
-470.95695268006915,311.1062391336491,910.4209898385279
-396.91433873952883,305.8903907042671,825.2053453523885
-444.80836983067616,276.93045025569387,1005.1189753891493
-467.5184696099076,238.59217979636267,1024.5292735031842
-508.31731529115456,265.3556515221814,953.1858483783964
-552.7249366501303,326.96690511030783,881.6700912136153
-592.6784375908186,377.1134893159234,829.8827836213183
-507.0916164031551,227.91677076269679,662.9093523272473
-408.84501843137065,169.72360592047235,731.2956004343993
-390.05062890997436,205.20973013210428,821.7240342012819
-418.9993524802048,337.22321078043984,848.3172133195334
-394.01630526224557,344.239878041941,789.7987590053689
-393.39733752096794,360.8388185567957,915.3390811337206
-439.501766658339,322.61169716467913,926.551880611626
-479.4002029235265,341.8761758602582,882.7183594805567
-554.4696710905356,291.7724197355876,838.5921797963628
-539.5094145299364,201.7192415350808,733.1555628068709
-583.9129570240602,89.54566544130769,697.5470726496817
-637.1523405036379,94.00192726364254,716.3577776304855
-690.3652113616781,140.94619467402222,727.1759469339684
-502.8190054707776,145.8958971718171,580.832394344654
-384.85109593999994,119.55968653923614,767.1457633340642
-364.1376005057793,112.0494766306537,810.6519555607675
-472.3896539593032,120.51720006322242,797.228411333126
-436.22745789846687,131.20994427250898,727.0902907720782
-414.1067540903367,175.25454665966464,911.7303054559917
-496.89139512473685,168.68451509944785,969.3820009891248
-551.0495429122076,133.29526392804885,858.8009157051594
-555.5750434654037,89.6793502368291,737.217092483162
-495.06508338729344,81.19215022459251,706.7551100528724
-397.75560461523565,128.03148883665676,837.56736500232
-485.76833067357364,203.24371727348282,949.8095679972265
-590.7124247321971,250.1639193812362,912.7571596824605
-617.6227355926845,214.63394737244624,810.4337362911903
-636.0714413178813,195.67844268939956,837.6938098127291
-660.5018023484065,203.25289471939962,798.0564208980642
-643.062615674058,233.54050567727003,739.34625993586
-563.5125144672238,276.04839573146796,803.1876328817691
-606.5098683036512,350.5957691974324,880.7849775407504
-519.9543167136586,384.14851146925815,815.249855965085
-343.5923582467,255.11158244660515,818.3263397796395
-375.2178368759975,186.63152044785937,920.124609321226
-488.3869619085009,218.03368122651472,871.2271774765084
-467.1197605706332,225.1145906094334,816.5775264743822
-384.60534433267225,115.75920421346741,775.011854200976
-439.6251523201094,86.00806595524466,860.6292668750287
-409.07037571443874,124.3207415376301,845.2590843968126
-421.0938495816615,58.64133011782822,845.3008927615446
-384.91125919656565,-18.487862827775032,904.9726461125871
-409.6210224694468,-25.43549530165755,971.3439349828943
-377.02069514054244,-44.53834897747957,1026.8440293066442
-428.10439854588475,-101.33174937414918,1120.453977658018
-664.9763170909537,16.882727536926474,1151.8306455313489
-674.7309223843006,132.2857448772007,1068.8767316055944
-579.5312364568941,99.36502271417866,933.056650334212
-597.9799421820908,99.71906818332458,956.3265743143685
-624.4660510979795,227.49256881809794,943.7249213543872
-346.03559829299513,133.78370799406528,661.7142449256373
-302.18270255387927,96.20094527692945,823.4075856689085
-456.30668984821534,337.82892221094875,883.0783193037379
-548.5226861364483,608.9429111878164,833.686325095726
-574.3419006490494,554.3778966313675,766.7654091866235
-635.6135887382543,435.2322148746004,801.5713826841991
-672.5558677020185,346.1090178603295,754.2228997669949
-648.8525643313466,287.1510658583717,672.3600821891268
-501.4383097184055,212.89125236446702,717.9893235712502
-496.4478185720915,225.72845976964612,859.3066949467965
-409.6750674287347,309.53995503051505,789.6804719246634
-346.94620487118436,261.9936471679932,720.1378656319947
-421.23355070283947,232.3923052214569,805.4666986177748
-456.5799737932934,376.3792936425793,867.2451856648296
-521.6806962622303,396.2974104306772,874.0517913864572
-533.8102206156027,237.90591078502857,890.1031442949428
-550.9129009396686,133.3299342792901,862.7278428413374
-548.6409732171537,121.3176772904101,819.6315765322511
-439.4263076585787,88.92353657976986,754.6583185899365
-396.92759505029755,26.833424258028995,771.2021944292903
-668.5443041201635,200.36301897182017,899.9852141149119
-733.5022663192834,369.9336674603459,768.9282272743496
-853.2220483039572,250.07520407070714,673.3481871995025
-834.8773536324842,41.15217734904377,690.0266655789694
-721.698031437851,-91.65331688191178,648.9983837498024
-629.7339050542234,-69.32622251227484,630.678162267441
-577.2144412210083,81.50928196682864,670.2023626824656
-488.42265197595515,161.96560497213628,659.4861650002805
-489.08750694681675,209.13767698449527,741.7344353066543
-586.7956947581489,214.39635349482242,810.8966874518823
-627.8362131818716,109.79386436754653,759.6141393850093
-632.523848612931,-34.27266191818817,654.0653536120898
-569.7684734338434,-77.95016646867178,584.5094910086524
-556.2460167335431,-50.51378401390894,635.6401013597916
-548.7113336358492,-11.00120836371238,733.7347616158423
-528.9257799554384,-14.881840383821183,749.7432864433829
-589.608072073542,13.868038524878529,882.1738310228264
-520.4631551039347,-36.92677927732713,887.3060627227443
-528.0855337959447,-160.42685320675258,915.0800732156242
-552.742271825751,-140.32824664895762,977.4367393554376
-459.5259339325866,-17.27705179648504,974.4938383647833
-357.28408783835465,54.84380496907712,909.0637475590545
-435.40862577944563,169.1617422871215,1076.2696741496843
-387.93267833561924,222.18494592954784,990.4564759627398
-559.8282797897346,141.8068351577756,937.1334757536978
-712.0035894010698,170.52204371523408,985.776998261384
-618.0041094563384,160.4717207201236,810.6111669122483
-629.5085477711553,129.6803699530421,818.39160161727
-666.4365507079381,223.06598073756078,844.9959976138642
-312.07191038733924,134.3323153166474,752.4873427725065
-242.11529931220144,30.670310452601047,903.0209092809473
-379.35380583583594,268.6870643899803,1006.1274747237845
-567.7606522104899,497.10451581324924,857.3233469125544
-747.5804683556568,385.83512208552366,803.9850509603178
-729.7272768988391,203.82291608245427,800.9422177807917
-703.9233581294327,75.87800115227934,793.9102547760958
-657.4375551284079,129.64875875043975,790.5013434761106
-602.5085018839258,191.26817006827002,806.8147634513316
-386.25218601663164,216.75189794680142,817.8175013893634
-278.00931000902455,232.44940932938366,937.124298307781
-270.1228248178532,360.8745086242499,1027.0785640356291
-371.78547210311376,403.75867396103666,974.3877878786334
-261.9610162491779,277.8359582528183,835.1710319018218
-111.2877486195592,-16.73180953740574,909.0647672752674
-254.35087415172362,217.9541433619024,1067.041242422234
-351.23819041160846,469.58441465740094,998.02073083061
-404.98743199767506,453.60648131624976,895.230277413796
-507.5270352260967,300.31050358685184,968.7783289910419
-553.9587932678336,234.96810837543916,976.1529166432982
-586.5203713806449,117.91794343634167,838.6982302825124
-538.4795011548287,141.1827688354331,886.4352250768611
-489.95120657920904,311.32343868701344,917.9852447063982
-415.82701534163044,279.094288059633,840.7111500869308
-503.99371854812813,345.54715422697865,839.1662800242693
-593.5523343853406,407.78961215093847,798.3684540592354
-662.8767214084321,330.09947331657605,703.401263428388
-546.962520330592,231.74070656136402,623.0527244267921
-633.1010079894766,174.12572081189808,594.4843550040025
-723.3418139731714,274.81555882997765,526.0746534239521
-773.4639249896754,252.02388175370797,529.3255087109258
-691.8285041273015,81.6538777258289,586.0676173820826
-689.9450882819312,-18.28300184058777,661.0004435765527
-658.353260287662,-6.743913568853789,681.0582614858286
-647.0211540128383,82.92974665150689,767.2671095634087
-546.8493318309515,34.81229573809609,666.8893047065003
-583.1175783779374,-107.21194291628642,761.0162491778539
-676.4838145544096,-32.34672390673676,830.0082087155146
-583.692698322057,-14.670453212870859,725.3741083856363
-494.97942722540324,-80.98637149281356,742.624647560584
-515.4267767280367,-126.48050047671735,828.8141210301175
-535.3336766377918,40.56665629955184,886.8216975215798
-484.3131956376541,133.09743898273112,895.1232072114332
-592.9445835224058,48.784651231562265,889.8553532551891
-739.4319160977501,100.10625442939231,875.7139288136113
-648.5762212376296,94.12541489703416,720.1103332942442
-530.8061366521697,-69.42024034711142,706.7275777151219
-512.1014821575156,-79.302820025187,915.046422580596
-481.78022056461685,280.48518097413495,937.8340207920138
-404.1838956218485,251.99227055110566,848.8260517098092
-440.12481326446857,98.46481724136174,954.7704873733641
-432.9358139629742,121.4461615332453,935.1776600572061
-415.6342889773777,190.31881427398758,864.5612925922717
-277.663626212825,172.6145013842648,737.1752841184299
-418.8494541968971,62.0699219407239,798.2277332218445
-535.1480882870297,299.36114779256934,838.8552665793111
-554.4350007392943,348.71235335206217,716.7371120617133
-523.0287610957871,82.1485420607445,788.7494710222146
-537.7412266166326,33.23520264310443,929.9811862358706
-394.1743612752572,89.31449577582559,837.751933636869
-430.30902499834303,82.49024896371341,907.8757781709351
-350.09814768549916,232.3005307622889,857.5527830604743
-378.0812000020395,224.532332651823,829.6869981084266
-235.85628119694292,134.51892338362237,839.9708361163089
-353.756889457664,47.008203616933415,901.2935100161627
-451.57928548484966,268.50453518785724,922.6290323402999
-497.64904427097946,267.90800120326514,815.9758939087252
-517.7588677071172,148.12601652959984,816.078885246236
-466.80976684188795,108.33872933162702,738.4835800196806
-559.438748196377,191.1121534876844,827.0836626166939
-629.8776850402534,393.1933942783724,864.5929037948739
-709.7632728811573,386.3541576379294,894.8162726313268
-709.3961750444853,161.45982573049923,840.6356910871705
-646.1482769345292,71.56297002544193,794.7902698678959
-634.3603575125044,-18.289222109486932,708.9291450189413
-593.5095063043956,97.85115202439162,752.3201093135781
-406.2192491829524,188.6954260629267,692.0242896401932
-463.3733232041523,93.75301453605462,840.6244742088278
-599.4881024610851,123.50802771588668,1019.0177073720384
-623.8368861945721,142.6888896820015,979.3425889574933
-659.1608755283405,-12.6774178746055,881.2214160799051
-584.0434806993214,-161.51081154114812,745.4869909704131
-665.2954882656157,-91.45426827713848,720.4866085768331
-539.5226708407051,-38.71872657839324,671.1721128010075
-401.7243401161457,-113.39856118042351,661.7142449256373
-298.4515609305931,-159.74160391163142,761.5332452978337
-343.0580269510996,-101.04582094803018,795.9884364181449
-443.03202418766864,-11.394105020572777,782.4149939071957
-552.4577710023301,81.74116543365982,717.6670932479492
-620.3188652597983,44.03420128178328,767.7983817103701
-708.3203744397935,-1.4666782234504139,794.1060402889876
-684.918907068163,-6.433002095516818,692.4331958415974
-660.3009182544499,109.62153232755327,712.0331611712461
-675.215287585465,116.59231235947038,613.6713352673952
-615.1682786680468,61.64673971233806,579.4343634166612
-547.9404281788378,53.848052087104165,631.4878169405455
-596.8184854155089,136.6368739579775,759.9883752351722
-619.2603998307272,272.1520600816793,751.3462803301842
-621.441572810287,232.98578005741004,696.5008438151663
-645.2397097887658,20.589905829207733,720.4080904284339
-474.15070385911605,-39.25887025640765,668.2281920941402
-622.782499630353,48.274691153452,806.9932137886027
-792.0186812010219,197.41196025146203,894.2217780791607
-743.7422565300078,203.2957228003447,730.0902958706594
-640.3134607638694,-26.509970275272394,649.9977056385209
-732.8649436861723,-254.66188759668188,582.6627849469493
-794.9136555296662,-110.39753636562946,651.8902989298078
-618.0601938480521,229.97251864806026,794.6770813682554
-428.61017778752176,85.78189289920616,845.096949518949
-269.95253221028594,-39.84847017075148,781.1780781408535
-571.0726904702423,309.033156072665,1022.7447701304728
-844.9633666950489,456.82776483304696,869.0052158484295
-1070.2941371416337,435.91848388593456,928.4944399973489
-1038.397413999684,176.206961602586,902.3764486343451
-996.9745019960947,-45.48862251635371,809.5537211993902
-640.104418940209,47.914833301892095,751.7898568828296
-829.7726542703167,199.7746427169319,693.4916612706685
-531.7065460682293,453.70335435648263,795.2154915287076
-432.665589166535,237.37157948942811,919.0926565136924
-580.0166213742716,352.25994605701237,1089.179281405985
-683.670774423478,421.67814697169786,973.580172637955
-568.174656992959,213.08907730978473,681.6670320649764
-521.2554746014184,24.66489575951013,851.7648738356116
-562.5631586729414,145.9784941850683,968.4744535595746
-652.0208226050692,228.55205396338204,1037.5000637322635
-593.1831971162427,220.64109558309923,1069.8046733594042
-573.44149123299,126.92917561042763,991.9238475932149
-545.1331494445096,200.43235967430266,1015.6475452881465
-616.0860232597269,271.0793186256265,1065.36890783295
-395.9394900399219,256.9266773057059,974.5213707025335
-308.6823736954006,280.065057894388,1042.466081689466
-436.5292938975084,338.80479062676864,1008.9582069310113
-564.7779822875294,411.8939699081746,849.805998990481
-629.0160248402871,445.4834219636675,656.4239572127077
-684.1928691245228,503.52057022530636,608.3066082709182
-688.155486328155,488.0749287473297,608.2994702574274
-687.554873478711,476.63983113499523,627.9697960057717
-676.4042766897973,476.44812448695535,616.3633860696568
-628.3542290180643,456.2383688619458,562.2072777146121
-601.4061886576966,413.54285102455987,570.6036210122724
-571.1858789698828,390.97755094757133,669.2479083071182
-620.8521768391857,361.5730142301398,798.1155644384169
-504.47400488444066,251.74447951135204,733.5114437652003
-710.2965844605448,207.57649146242602,805.1444682944738
-668.4290761880969,288.21870873335956,774.1032870552126
-531.1477415835174,217.2709334992072,748.9264937567875
-635.9623316830927,153.22561731070243,849.6122529100152
-707.0803995248124,258.5888147328599,887.4376061142185
-455.7968317417263,204.65908337709615,703.0025543891136
-522.1956529497842,245.553782382363,890.2510031458246
-606.1305338724234,443.3766882676552,872.6282675531401
-643.4837584700178,431.3889044678866,797.5414642105103
-606.009187643079,280.2108773128439,798.61318595035
-673.6255500094325,219.39398265462725,860.5986753886395
-652.168681455951,253.55549550560085,805.8603090759843
-686.5963402385116,264.4756364303815,699.3427929007357
-693.5946526081792,268.57489560655273,718.8479246225776
-645.4997374230752,318.8876935548837,762.5692769702193
-598.8395629496312,275.1581834775382,673.1493425379718
-723.0032681904627,257.58337454686364,761.614822594872
-744.0430728128363,237.97831063614998,714.2704185425197
-622.4490524287091,147.7711552874835,684.9994646489882
-555.7473755053969,129.25106942737838,835.1965248071464
-418.6128800354862,121.05357079124882,903.9967776967671
-304.1069070477687,66.81557922430189,996.1607684581383
-324.6368535636533,48.3346504667751,1074.4035934799347
-335.597783136953,75.60757241259759,1085.9263866865854
-385.30283022234914,67.37214033334524,987.0934518923385
-507.4607536722531,129.407086007964,894.7887402935763
-637.3542443138075,226.2525939031168,794.4007382745383
-666.2937904381212,314.7914935273514,719.1008142433961
-703.3849479689803,423.5839965737536,737.8013898731983
-710.8044031346077,606.2223083315914,819.4908556948602
-500.2646163572678,548.1749629078228,571.6651455899823
-459.8705980125731,232.5401640723387,357.48089306745936
-539.6399382051976,217.00988614868487,281.77002340248714
-605.4870929420343,388.3507619829402,346.92479083071186
-608.9796209714838,568.1114345877543,542.4961633177487
-528.3180290925036,523.0715891767321,767.5597681165333
-556.8965956774231,314.33466066393726,763.9112235064982
-502.44374990440167,50.43873290063376,722.4465031381768
-210.00443576552647,-153.7446528631082,645.098988951375
-735.3754850025239,24.882197284495728,1119.3526841480018
-1021.1234213518379,303.9947382643411,929.6762910881903
-1024.447696206146,6.667455247204703,561.7147547837437
-784.3646913064094,-364.63012343664764,786.3429407595867
-411.3892103827505,-276.90291791794345,972.1658262505546
-348.1413122727945,110.20786915001557,1050.2975022051364
-246.18192756955742,283.66363640998713,1066.9392708009364
-246.5806366088318,162.84765949636218,969.2270041247523
-437.9477191497607,330.72455935513153,969.7185073394077
-655.8457781199493,575.1637919167097,855.7407473500125
-673.6857132659982,520.6069350899645,796.7878939291196
-725.3588126424416,335.22660643542906,788.7902596707337
-706.1901872708827,256.8185873871302,691.2258518454314
-585.7168350048182,278.32644175126063,606.6169385060139
-540.3292663651706,317.3703558299726,685.657181606359
-516.2384708335671,442.0123079746907,799.4116237451118
-536.2595789591758,386.9088832577894,677.6340544426487
-577.5183166524757,232.04764114147034,630.4436275384562
-646.9140838104756,156.3326926116462,755.2466948448248
-639.6965324550179,86.63631311406037,755.5903392085984
-621.164210000357,39.96023106769387,744.2510949202838
-404.1063971896622,-20.313970621975905,684.9117690546722
-454.0735113417936,-53.65563163771523,805.9398469405966
-505.525332300021,153.06450214905195,945.7582354830652
-529.874116033508,191.55369060790386,902.0919478109244
-718.9621328384311,19.158938067535807,927.3136086227204
-777.411246450113,57.06556265391342,788.9493353999583
-748.4931143662719,56.34870215618994,734.4393855190102
-636.959614139385,24.53600363018972,736.2177705944437
-592.2827877001831,98.15900434908966,787.6583746743282
-351.261643884507,176.946255856995,724.285051470176
-414.2433960628757,194.53024223358642,903.8142484946442
-437.0942166794982,349.2517832287275,879.4022423559524
-551.6267022887531,380.3123390760352,791.2406377305198
-624.9228839613936,311.34383301127303,802.1485420607446
-451.3131395532624,81.20693610968068,746.6566054666987
-575.0699780251157,160.28205350450972,826.9531389414327
-645.9902209215176,326.48865820642123,746.8381149526087
-722.9675781230084,237.28592332753794,655.71933330954
-743.8513661647964,187.82152926840465,730.1412816813082
-676.4338484599737,226.4126893485543,778.1158703532807
-562.765062483111,143.93498289426054,740.8513610662154
-558.8932000224339,152.63010304232336,850.7686110955322
-298.54843397082595,161.76879974303154,803.6179531236457
-218.57718996803192,6.428831456205739,809.2641217949046
-295.0589650900155,193.53907807457188,897.7540750409162
-569.4503219753942,450.3372711374425,818.2090724151469
-637.4113484217343,353.68041074169065,766.4972238226103
-538.4132196009851,-29.720240856969507,812.4446166631827
-501.15788775983646,-134.6096781265774,797.6577118587898
-653.1496484528357,210.82836646561265,786.3663942324852
-874.3260950477484,324.1361729030811,715.9529502939332
-799.6522767713747,118.25852865147631,690.2938312267697
-819.3684897493027,-68.94546047834888,937.8809277378106
-724.0168661061628,42.05890900562374,887.9148333018923
-515.3033910662663,90.81388649538835,898.7258645918841
-501.9512269735333,80.58480724814285,1063.7985448649642
-484.271387272922,338.78541601872206,965.0726802730802
-345.6888947805826,131.00498131370043,783.3918820392286
-349.82180459178215,58.58463389638664,901.3128846242092
-454.36107131385336,260.08269898487254,844.123120535555
-603.3854578270867,395.72942850004847,739.3931668816568
-629.2322046774383,337.29561063156126,672.4844875671101
-730.4023290318305,256.7237537793232,659.4667903922339
-740.0447655417498,252.43584710375106,604.391917729296
-783.142051567049,229.41371416334835,588.1254046998721
-672.5630057155095,178.05264794807607,566.4074887958682
-521.650104775841,130.70620446329787,596.3004695793162
-473.4725925774857,154.00671992984354,647.9633717936299
-467.8763900006629,247.09967216123758,679.1299781270873
-463.04191543493454,289.7972294310494,698.6820167947261
-561.9227768911912,321.7938847618708,728.489341416284
-717.2887785329344,322.6759392860967,690.8383596844999
-829.5197646494981,249.0463104118124,579.5159407136995
-875.0602907210924,200.371176701524,720.2836850504506
-548.494134082485,19.948606302865915,733.6338097107576
-443.99973487378463,-290.69050083361805,700.9253924632776
-549.4944756874163,-374.2164755548531,785.9687049094238
-767.1294478746565,-86.23485084101095,781.7368826255654
-794.092783978219,289.57697072904614,815.386497937624
-1011.5054580310301,453.1608653311784,1176.5689608581933
-805.7960669545666,178.63184675704753,945.0984790932685
-435.439217265835,-272.22242050037477,610.7253751281019
-502.1459927702121,-269.0276496051149,907.9859075219367
-476.6999943915609,319.38225591817803,965.2511306103513
-195.4551248387574,444.63807722310884,941.5692412801518
-169.601239974915,155.50264361428216,1080.297553190947
-341.235794078508,253.83387803174378,1108.7884241815505
-478.85669418200916,399.9418761758603,886.4556194011209
-587.4799243370571,330.0821381409554,767.3252333875483
-531.5556280687085,159.24092325105926,749.1161609724015
-442.87906675572196,113.22113055936533,872.2632091488939
-492.38628889580036,319.4332417288269,957.1668204738622
-512.6847598313391,438.0456119062065,791.6291496076643
-410.02890895463804,297.86522410813075,781.8653668684007
-489.2414840949764,257.43551569598185,949.5740135520285
-540.6290629317862,409.1081052143189,991.4639555811618
-446.74685035154727,407.7488235024193,922.2313430172385
-454.25298139527774,314.1766046509257,836.0928553583539
-388.5700009687304,235.48000591435408,747.0757088302327
-318.70618406897364,125.94005088383904,673.924326859835
-344.51724085187095,162.19402140384335,810.7773806549638
-387.0812152977827,337.2589008478941,880.1915027047972
-487.3009641416794,450.0211591114193,854.7628395017667
-464.3869211198524,336.79900883584105,761.2966711364228
-419.8314409099948,115.88972788872859,758.7851101038582
-482.85908031794753,101.5707708544712,832.4565473428746
-515.7979534295606,272.19896702747633,847.0864158504688
-518.3992494888673,353.64370095802343,866.395762059419
-585.2528641279133,401.1512596044521,928.0284296880179
-567.8289731967594,268.23838925627,791.3762599868458
-595.8099860808738,163.9224403848409,783.4591833092851
-486.9848521156563,120.84146981894939,820.5564591374222
-423.92050292403627,133.3013822253267,970.5944435663557
-438.6543824853544,230.13873239077566,970.0468559599864
-406.5832878709856,239.80462237359345,782.1131579081542
-392.1114753764028,60.805677779873875,680.8940871755392
-504.77074230241726,74.02283144600858,761.5781128112047
-572.1178995885447,225.67849367521023,787.530910147706
-630.7648381455442,222.05034338943472,763.1168645765885
-643.7957916311891,109.77550947571292,743.6769946923772
-633.8525388384414,98.69160212712804,810.581595142072
-626.7186042124478,133.2452978336129,787.024111189856
-639.4518005639031,102.14497305399908,759.4662805341275
-414.63292765623333,68.85847868538187,696.2275598700883
-585.8555164097833,12.816609137676986,768.4193888840737
-774.4061427704671,188.127444132298,737.5311650767592
-721.1861338989361,232.87463099019547,596.8919049828434
-657.1194036699587,65.94535340814652,590.5645658813153
-666.9137778956117,-25.211565621287598,771.2582788210042
-701.6035037449078,-0.7781566590017999,876.6214762431616
-871.4311207191041,135.62837462334235,838.2954423783862
-784.9948759260299,159.43466933152507,549.087608918438
-632.5371049236999,68.00273283945079,410.3939673588841
-545.4523206191717,111.40501598405166,580.3102996436093
-493.68540735113424,244.73495026334174,823.9623112887685
-418.0173657671071,322.0223011935779,879.7805570709673
-375.3544788485365,225.2165622307312,908.2184028184957
-350.5060341706903,135.65080838002785,865.7217296426405
-405.5992617254619,147.3663279509313,829.5350603926928
-489.7503224852524,217.69207629516708,831.9619849795802
-524.9866162247048,319.22623933759235,905.6589151239211
-544.4458607169626,330.91320685453246,897.4797713796252
-584.6420541163395,269.00317641600344,861.7642110200732
-544.5427337571954,156.1063156123651,819.5754921405374
-495.70036658797864,93.61484298919612,796.9694034150297
-436.5354121947862,93.51052602060848,837.1023744092021
-359.3663483452555,151.8653158825899,940.1018696496767
-276.6724620538104,228.922210948693,976.4017273992648
-216.10845701641236,247.48206574110426,941.9251222384812
-237.78558427189716,298.22824307995086,972.8266023565643
-268.7227544574345,340.91968205248486,960.4452080985862
-292.2802384096506,356.43568394915695,944.3408299470259
-279.4929970989074,356.65492293494725,979.8534667801953
-282.5562246026931,410.9486929787441,991.3986937435313
-280.5840934467938,375.6899654826062,944.4519790142405
-207.74882350241927,301.6534698393437,949.7167738218454
-132.86902255102405,266.74858386910927,1005.9010977245034
-146.10187984683864,325.34249718303397,1056.5279682664316
-261.5714846558203,442.1265161905442,1034.7774214436124
-424.0204351129081,589.9772093426401,984.7511637511282
-481.9770257937217,562.3551365654939,874.0864617376984
-304.73097337011114,301.23844534066177,818.7536008728772
-104.98182355850368,80.40115635818553,959.851733262633
42.39521141266386,84.36601693748631,1099.4070350221534
38.67406300826481,277.523925091647,1063.3804612176432
-35.77082897829534,374.3286443382807,1006.9921940723898
-58.23905207180842,467.3563347320441,1006.3416151285099
-87.8962744668159,576.0213732518241,1017.3056038504485
-106.96517159274575,598.3949666807728,907.054906619488
-139.8907883935901,532.4539980523421,859.6880688104501
-160.6022443953848,482.0361693340743,828.1513054916818
-245.59763017952108,509.6694589895632,815.0112423712483
-292.7941753809915,548.4054187719559,778.8521054590508
-307.84416696833273,497.41450954199456,688.5317616107437
-349.2232311747641,525.0284245894368,711.3672864841716
-416.23184267818266,525.157928548485,667.1921604217547
-497.53585577133884,471.62078793471784,666.1551090331561
-561.516929838426,437.75295335308186,716.3302452927351
-602.0761422096232,369.0251003145825,782.6740018252922
-568.9832919498504,284.39273350226637,865.8716279259484
-612.1692932856787,216.00240653026265,967.4955259951157
-425.7039865805347,253.56875181636954,1005.4840337933954
-351.3962464246201,214.65842056155776,1045.97390546211
-347.3245195861992,187.65021694462433,1057.9045851539518
-417.0404776350742,176.51185675026642,1049.0432512631735
-487.68539715397213,188.31099305063404,1008.7002187291279
-500.1728418980999,192.02989807936453,981.0281798575458
-426.2393375923481,152.02949019287934,899.8536707234379
-369.3350940433278,43.22424069381492,897.1483636104073
-378.7113846216599,-33.37684122508706,975.7582864688759
-409.0520208226051,113.7360872469192,959.1093798595851
-487.60585928935984,296.46413403149904,988.7127612385474
-508.22146196713464,478.78123518224885,1023.1118679671449
-475.7322837054448,598.6784477879806,1046.7386926218435
-504.27006164184513,614.9388425201267,1109.0535503969245
-510.2037902851637,576.8238899114377,1167.9625560206596
-528.9155827933087,514.3254832180205,1085.477711552875
-526.8863475294826,370.9472653760459,1062.4423223017036
-522.9533020960267,498.3801807956846,1038.5197799452415
-507.0365517276543,808.3361800410946,1100.5083285321696
-534.9808548281014,1160.732768070646,1110.6748991755596
-501.55047850183297,1363.82964620946,922.1099967878939
-288.4430463002147,1510.1181341232736,595.1400325289472
31.806478257101052,1773.2253113958386,445.98920120530465
205.2545976454753,1958.2630154028136,522.5311395838538
102.21227432405561,1933.2799681848544,666.2825735597784
-39.47250080302653,1854.5068907323093,817.4860936201457
-103.20445819928314,1662.3617647208782,907.4464776452714
-146.32213854884188,1345.8214578882698,951.0393457500779
-117.09809160110741,1078.7169930608313,960.2269888290091
-125.89212422182908,885.4063314179664,968.5968195051319
-84.80857377391872,680.0711761916659,973.8289833939217
-34.13020756323515,562.9771634554105,904.3404220605407
30.897605196473826,487.97805570709676,795.6784426893997
130.57873993667565,447.4616714168447,679.5694758148808
204.15738300031103,434.4052250258754,582.6005822579576
141.1654336598125,438.40761116181375,542.3972508450898
84.83692188463951,416.0523726246986,588.7239781168902
123.97301830900462,346.39147925132437,620.9419118659278
84.24038790004742,253.7023346402696,604.9609193761377
94.35811413683572,125.80850749236488,589.8456659511659
175.31980849729524,-30.27904534168141,513.0926463165301
201.62338821106087,-151.3707535192956,407.9303329883294
253.33727623602354,-237.31039651664946,361.89932341829274
324.1810404164521,-284.8128565820133,304.2517067500115
413.6111720108294,-332.63652725446514,227.260073521539
484.75473275787357,-376.20186302152115,177.45305481484505
486.8624861700989,-372.8072277485176,126.45296813896695
497.8223960271857,-342.1525189539752,102.9658446054463
531.9308836350843,-346.42614960256566,87.79256932795604
476.7285464455243,-330.87649707086524,47.66704226213845
455.43381276990624,-283.89715142275907,90.36041869547705
288.8519525016188,-208.4656840001428,158.25383795689663
253.88894270724458,-164.7922583145111,251.77405128152836
236.3039366144402,-151.63893888330878,408.45038825694814
175.6206247801237,-64.96081740451632,528.9125236446698
82.51778130146381,72.75736362570298,703.6612910626973
-10.668678906660277,314.72623168972075,854.5089301647353
-85.7062299562032,571.7130722519923,970.2569174998599
-138.71301616760056,770.3191201888515,1066.9086793145468
-167.6056553461172,832.8328226254633,1109.4308453957265
-187.68794644450452,716.9196412638363,1109.5226198548944
-173.71681461049394,550.3775499278552,1102.4457893368276
-141.13076330857123,348.765378595137,1083.9889258819271
-109.52771843595929,162.35411684928087,1034.0738172566575
-85.11316300673523,-8.420439191772932,995.7702171485677
-66.10697842790351,-167.96867431793734,910.2517169471737
-60.52566370779013,-238.07620339259586,863.4763145416632
-70.22265503510373,-269.4110629011946,812.4170843254323
-105.28773842239707,-188.13968072685375,784.1454523206193
-133.7633136698057,-72.45093890370312,716.6096475350911
-142.4268226152662,4.606802526856776,673.0494103491
-151.00773454747545,54.65189437779466,637.4307230297809
-139.36563454390645,85.47822141098133,633.5761957447244
-159.7518010737612,100.79405301504592,597.8973451688396
-167.04889029383125,100.95618789290941,609.5618789290941
-175.3024733216746,120.18783172643055,589.749812627146
-209.71177721240178,178.4523767035634,585.1131630067354
-247.3484829172042,267.7988915684765,592.0971993494211
-297.1993494210562,360.93263244838965,579.2630510928809
-317.95159407137,523.9057170389482,613.7233407942571
-324.49001442898447,728.9390362662073,605.0843050379079
-297.6541428520443,825.2440945684816,581.614516680008
-240.0707683051807,851.7760907139544,570.6138181744021
-182.75965798718218,858.9304196642075,555.749414937823
-219.60506391071365,925.3037479669409,590.2953608010891
-380.3327334002947,950.0053535101182,615.2763685866224
-532.6977102272439,893.7119199726717,675.9780353127726
-619.8793675720048,790.488087165342,737.8146461839672
-661.0932377519337,686.8390326972004,792.4908098076306
-671.6972666506913,609.9299964819792,835.7624673053491
-652.674460697588,594.272254031703,832.1761253843056
-663.2193460559927,655.4103592970077,737.6209001035013
-665.2669362116524,751.4441730866301,658.7733833674089
-700.2370840195174,1066.3274410731494,362.84154119908436
-340.4648886214967,3333.8295952236494,274.2394191696451
-737.4404103338042,4254.266237706047,743.9910672859744
-1001.1961271178232,2107.6412434419503,1022.0105744571288
-947.5845472205087,749.6239796464645,1070.559263357008
-1047.8297889697299,-250.8450898115055,1162.7008203616936
-1509.2411781801127,-919.8676408355557,1656.4678050098657
-1246.399127122922,-632.0445819928315,1624.122406734206
-798.4898002885798,-207.71823201602996,1013.2297981471758
-524.238144524379,244.169007765139,1164.944196030245
-411.1709911131733,765.9894051485473,1208.0577975149517
-490.37234937516894,986.1787664492973,1100.1616250197571
-469.43961495515805,932.3805784850077,1159.5193057772024
