acc_x[mg],acc_y[mg],acc_z[mg]
286.78702717033855,947.841515706179,527.1606511907736
333.33809200899395,927.2554847985807,429.81242320262277
320.06036719980835,896.0185180464277,386.5479037183952
290.64869246888594,962.264381822539,413.3562429575849
312.8428158443506,946.4057552783062,390.1944088960043
332.87514084830195,900.1065603442563,422.0472842407958
306.25748854093905,776.8228701952248,457.3865693177589
253.26691581732806,603.694431839619,519.9706321730663
217.65230736286097,535.2102909760214,617.7838507543352
209.03366593077152,702.099085824415,668.1119444458608
290.36317192925213,778.8143759591707,665.1466096985209
332.6232709436964,792.9058343063127,547.9934534219128
395.0778298399556,783.9109175916344,462.61771349033575
421.4242376346663,810.5785359934331,439.37430213171683
439.35390780745723,891.1932209266163,384.42689399540114
420.331101854354,906.8519830931052,388.0132359164445
400.73827453819604,841.2658757067909,391.86572376907515
376.77290410078876,798.7518673553151,375.9520325493416
336.847955214064,794.8392162461188,336.12089755421067
332.6936313623919,810.2410099269374,324.23304594331404
332.33877012027557,837.1849714224533,308.4376418042859
330.3115742888755,884.0154385034647,351.42071961373153
331.7279601087018,950.0237084019518,378.6909902974003
336.23510577006425,984.9153380614177,390.41466759800755
380.4224684270368,1027.5170420072095,434.10440874304686
379.44252114636504,965.4836259069101,418.59962372471745
406.6352933978474,918.9876257437556,434.86307760550244
392.0411149577073,842.0734909474695,474.1496841429031
386.6906639882121,725.8707101813566,454.8382985015271
390.299439665941,652.4032161849358,462.9899099080726
369.33101517847587,765.1175477864512,501.5413010559162
358.0152243630598,800.0254929053245,501.2547608000694
376.30077549418,795.7681777161417,474.07014627829085
372.1474713587209,830.4793176059104,458.1921451260115
371.87418741364286,811.1016504106908,454.3294601112511
343.729000219239,780.1206324279954,426.54015387517654
328.7238761452688,780.3429305624245,438.0884399871516
315.499176579158,795.4622628522483,386.81914823104734
318.180010503077,802.8613236936162,351.5124940728995
317.7445916801355,779.5812025513301,343.73511851651693
294.7071629965381,714.1276582727028,359.3092442373288
315.23812922863567,655.3716100809145,297.020899083785
281.95765118567505,597.0652567390496,237.84982639331477
240.27675098020225,659.3607399060842,244.86445422238992
251.67309937644356,674.6778971412257,237.13500532801723
256.48106132063447,674.8879586810991,264.6785599567641
247.20980151223918,748.9275134730005,315.3095093635442
277.57287146986994,798.7773602606396,292.0487628293046
275.5538333681737,879.3706311533501,217.17915904003917
314.8220850137407,983.5285240117677,217.41573320145005
387.51765383693726,1102.5477609581255,178.85720404011565
395.9048196886807,1141.286779889157,190.62574885409393
378.27494608250527,1122.534198732493,241.44534576027496
397.6240612237615,1095.3689588187608,249.6754753152198
408.83176212060187,1025.6815528238492,254.00315092309813
418.50173096827154,1033.8392825276728,309.06476727526734
410.5224516017193,1033.829085365543,301.0967047870578
425.41846604090085,1018.1295345505347,289.59838476951865
431.57041395379673,1029.2709538935317,242.55785614863387
441.49531185471085,1009.4568481591575,199.60231067693863
441.08640565330677,970.7351644037466,195.80284806738285
426.98169099539604,982.7688354330991,230.87190834790678
403.83413296079704,959.7691362493819,234.52759097143266
367.04481142897936,956.6426863403916,285.0076223786921
371.0624933081124,941.2062223083316,292.9685468534107
398.7722616795746,968.215445641478,308.9913477079329
417.7654958625015,1006.6169385060139,293.4478134735104
420.3647524893823,1002.4106091274799,258.1788888152428
432.0354045469146,959.8690684382537,270.27170338494795
431.5724533862227,913.4097780587664,266.4967139645037
430.99937287452906,948.0230251920891,242.8229823640081
428.20942931582147,963.7674435204684,270.20032325003956
414.1332667118741,902.4315133098461,321.2167253853253
342.22797795373555,818.3630495633066,375.3677351593052
341.791539414581,814.3922746299706,363.6012297777529
337.6657676168723,775.7348329959773,363.6695507640224
340.8931694309474,763.9622093171471,348.05973497575627
331.6851320277567,802.263769992811,296.77208832781844
337.81056731911514,809.5312874427048,249.7437963014893
367.90137304788084,820.6941208261743,226.60949457765906
342.71030372247407,719.944119551529,187.32594718889735
403.3558860569104,730.8000183548919,156.80074235340308
406.3640488851953,726.6966803138687,133.31157938745648
449.296140883992,823.0537441430051,129.70484314215355
410.13495944078767,792.2980834433779,117.44785426215886
395.29197024468095,854.3508741517237,120.94140200782122
373.4782010166571,962.9914394823923,135.94652608179146
393.6991735200094,1001.7008866432474,155.74227692433197
415.9748741925123,997.4476503189164,132.54169364665816
430.8443760101564,939.2636629226087,129.036929022653
441.94092783978226,931.3343496504923,117.45601199186268
430.19073791763753,904.3424614929667,117.37035582997254
424.4476962061459,873.9997858595954,180.180795684561
414.7685499125594,870.6989644781858,234.99156184833762
394.5659323010407,860.0235554445198,321.06682710201756
388.5496066444709,887.5405974517292,364.0550034925281
384.9969153584558,872.1979473112634,375.82762717135824
389.28584175024093,876.1401701906361,387.6522563770503
404.6733594040779,872.1520600816793,387.895968551952
415.0336761279337,856.3138278617062,356.7079481780221
414.26990868441317,844.5371253180241,337.11308142943824
431.98339902005273,855.583711053214,290.2448848485467
437.0452703012752,808.5187092432177,223.76142719481172
429.6747615138707,772.9091993698155,129.58043776417026
458.5674006923874,749.0131696348907,79.07358782050956
451.9208904161972,880.6442567033596,82.45455889625917
424.4527947872108,1023.6217260736338,38.38997007132915
368.2858060601735,1101.7115936634837,68.68216975215798
361.7759377565224,1214.0639260093917,79.97950370411915
350.0797927936656,1194.8116839083684,79.86927238149624
366.4503168768132,1079.0738937353735,131.52503658231916
363.689945088282,982.8340972707298,182.8279789734517
364.53630954505365,928.9798249147264,218.34469467147298
344.562108365242,847.8512030102023,214.39431406239646
359.6753223577879,843.7947719149762,206.78519168115517
366.51048013337896,835.7930587917383,183.36638913390408
384.6583695757471,889.4301315943774,140.2864382842255
369.9805744061428,916.7666838318897,155.67293622184948
361.9727429856271,951.5084152080478,139.7378309616434
357.7093094991664,970.7443418496633,123.9097959038
400.2885796882728,978.1892899206152,128.44753305155177
424.9442980018661,996.7083560645073,58.111179658701
443.55717803735223,980.9486419929335,42.744770130472695
433.25192598899736,946.5954224939201,85.877032421877
392.91093288737744,889.5076300265637,156.10835504479104
359.9751189244034,867.042262138447,210.63564010135983
348.6878801629507,867.1992984352455,218.3151229012966
324.7214900093304,843.9946362927197,198.41128214018042
351.259604452081,859.1241657446733,183.05945455379768
388.4843448068403,904.8411027211127,136.36766887775133
425.6275078645614,919.6422835524875,93.7030484416187
449.5113010049304,950.5498819678484,109.65518296258153
423.2199578857204,912.3105239811761,136.86223124104563
416.65808405520755,920.3815778068964,168.13386834443978
385.7668010992541,937.0478195918076,273.57966277984843
393.99387150556004,875.3274563688926,301.3832450429046
388.6689134413893,820.9215175416682,270.09019389903796
418.2396639015363,913.0538971004371,215.27738830283533
461.2533331973712,1021.0214497305401,211.63292255765225
458.3542800038749,1021.2865759459144,239.06124925433258
437.00754080139507,944.6712180000308,305.71907838048674
444.3596946969659,952.2466897462438,294.0290517149078
459.4188637302239,959.7630179521041,282.4552726976083
468.0293474326096,778.4207655009612,345.9907307796241
362.19096225520445,523.8883818633275,345.2636731197708
302.9179179434364,469.89848725099813,313.1609673027997
345.6022189024795,666.6027644506535,281.7394319160978
370.9309499166382,709.4593974496898,336.9193353489724
347.7823721658263,705.7690444749228,336.58486843111564
350.10732513141596,778.7317789459195,277.50455048360044
362.1287595662128,921.648065343415,261.5041833857638
330.8030775035308,857.1061473591901,371.14203117272467
343.5974568277649,910.3965166494165,284.8118368658003
362.810949712695,883.2006852492951,289.1160590007801
368.76507268027314,852.8029449404231,356.0267777477528
367.756573345638,825.5163587973467,332.5559696736399
391.2049476630654,794.5251436525216,348.71031391963623
413.42558366006745,801.8446666292772,321.5460937221172
424.720980151224,835.4494144279647,196.01392932346928
372.22598950712023,862.2669311130713,120.5692055900843
413.3929527412522,953.3235100671484,-43.95558116176269
472.53955224261097,963.8031335879226,-117.67321154522698
537.8003701569854,1082.9590125068196,-148.49413408248486
574.1685488928432,1264.6214558488375,-136.78881167371122
492.28125812586364,1366.4095282282942,-75.56443841678862
442.8433766882677,1227.9320665058915,-28.742333008723676
409.011232174086,1058.4858233953491,30.191757633850504
387.52785099906697,1001.1482004558133,88.93271402568666
337.28847261807044,987.0485843789673,198.11760387084277
273.0667455247205,744.5763843922238,284.31523507008006
229.35355090678266,207.7671783942529,356.11447334206895
404.42148949947233,230.01636644521832,401.83243003472137
504.876792788567,576.8809940193645,339.37277255739735
484.4855276776473,881.8383443887568,243.84779715805095
478.58442995314414,1016.5204223664555,156.96287723126656
531.8493063380462,1093.1663717987285,122.18137692280241
563.0852533739861,1131.6504616765155,126.44379069305013
560.8398382730087,1166.840868186384,165.53767086619794
515.0341859860401,1171.17466209154,176.61076922292528
511.45498207848755,1132.649783565234,192.38577903769382
484.5905584475841,1071.0997129498862,207.88954433981024
481.4202607414357,994.0611727756167,243.4235952134521
470.0249320614074,959.4346693315251,255.14319364920746
471.22513804408237,936.5634543906432,294.4848648621089
523.9475254036802,877.9114172525788,271.9246633661852
557.1841556494828,846.385870812153,237.20740517913868
574.7610040125834,818.7790937782016,194.3925805448344
588.1570159024744,802.7073465454565,139.70316061040214
587.7205773633199,798.7355518959074,127.93563551263685
610.3786716156894,790.716503597049,116.52807023805276
622.6478970902399,794.6679039223385,136.32178164816733
605.5615322255817,814.6726965885395,194.8677683000821
601.3521436984088,880.2659419883447,171.03598068657493
560.27185634238,950.4356737519948,193.7318044388247
545.7572157668521,981.6746799365737,213.03197320185794
551.5226912350294,846.9579316076338,295.98996599246436
575.8724946847293,750.5407045219316,351.6246628563271
606.373226331112,703.8774708998486,352.2385320165398
601.7855230889245,638.0711048115311,344.54273375719544
605.502388685229,638.0068626901134,340.6739304451571
614.1353061443001,692.2465877746224,356.31841658466453
583.5529972008791,669.3743531175276,367.71170583226694
581.0108446819252,584.7715580753877,422.9038458596973
562.8364426180195,469.3376433338603,477.9654622118665
513.2068545323838,419.63565539710305,500.93762905783325
479.15343159998577,393.02820025187,524.0647927681727
444.0364446574519,331.396552339484,523.7466413097235
440.23800176410913,319.8543845247868,527.653174121642
445.0724763298375,362.55092207838567,547.2052127892808
475.16226234239014,450.95216001386814,508.111332616133
486.2312818342656,477.77273584761366,488.5633728133461
544.8506880535148,477.5310631051379,512.9896549790194
589.975169910214,453.72272896452915,486.27410991521066
638.025217581947,433.5129733395197,432.11698184395283
640.7611161813668,410.03196810327694,404.7651338632459
640.1615230481358,363.53902708876126,397.0642370228366
701.871689108921,351.49006031621406,401.95377626406577
766.1260471210863,385.4272356003325,359.6304548444168
800.9411980645787,462.43110542336075,348.11887851610896
803.6485446100352,512.31868171088,304.8196886806402
794.277352612768,546.7177884394773,249.61837120729302
770.3650074184355,569.8694253389283,221.70975817430013
766.1025936481878,589.1053519805439,205.88274283266966
777.7722259895072,565.8721377840548,213.9854078609923
786.9527310549474,543.0111200053026,261.2951415621033
751.1810863036818,504.38630929012464,237.34200771925174
779.3018003089741,473.57048533393163,277.1139991740299
783.3194821881071,438.82467509292167,289.0650731901312
787.3371640672402,423.38821106086186,297.0259976648499
737.4332723203133,412.2376142719482,304.1660505881214
737.0508787404466,435.3127724554257,288.38390275986194
718.0005404495929,466.4110578026136,287.9933514502914
724.4533046453173,462.1751566539033,252.78255061616358
713.3832654372288,473.9732732380579,264.35123105239813
713.4107977749793,477.8420765500961,264.33797474162947
721.0352158994153,485.4858692825787,260.5018023484065
711.5018890242847,458.0534637210465,213.35624295758493
695.9797688303346,442.6985769860248,213.1757531878878
688.4359082867238,465.9695206823942,212.98404653984798
677.202714484559,473.86518331948224,220.63803643446033
670.2594667903924,485.7020491197301,240.1176752509777
708.574283776825,531.6922700412476,224.8382475157164
719.7524129034891,554.678712914196,209.22945144366324
751.0709569526801,585.4588468029348,217.44428525541346
761.430253960323,608.2393070008617,178.27596579871823
713.7442449766231,596.6481928079417,138.35509577684533
698.0304181346332,592.8303753065522,130.28302223491204
702.566115849959,573.6617499349932,153.96287213268548
694.2319752412905,581.2882074918551,134.1895550468305
686.8237369540058,604.5938215394656,137.92477553496863
679.3614537074333,658.7815410971127,133.70518984566596
663.4283878796532,701.2517016514305,109.77550947571292
647.8236706724518,732.2174238909313,97.66362621282498
647.4402573763722,793.9122942085219,73.9019950747707
617.6757608357595,829.1740808532986,96.88497091259504
608.9306745932607,894.6255856994999,53.36236125486278
590.0985555719843,937.3639316178308,56.86070166672616
571.403078523247,980.136947887403,64.28556132828236
556.0981578826613,995.7314679324745,64.00371176701525
541.4478950508073,988.318131064125,87.35694656177186
542.1025528595393,984.620640075867,107.00188137641297
545.302422335864,968.9792130849986,91.40460809756645
532.6508032814468,968.7946444504495,59.818694457332526
535.8221207038082,987.903106565443,36.254072491625585
555.0345938725254,1018.6353137921717,28.588967690291796
537.8482968189953,999.0006781112817,-18.69772042440589
542.0556459137423,1010.6458372634896,-10.8246954872459
530.7684071522896,1010.8028735602883,-3.1451005185256946
512.1279947790531,1022.6937843198239,12.234045265202695
496.8781388139681,1026.7216633610867,15.916648396751187
496.0878587489102,991.7617127153516,0.3242666965783423
503.74082892730956,964.6556163419721,4.454966782744362
538.5039743439402,956.6844947051236,8.927197360974441
545.856128239511,964.2589467351237,-2.762095108931185
533.0678672125548,964.0407274655465,-38.274436224398755
537.630077549418,987.3606175401387,-22.58630623097592
525.2242101023286,1002.6849127887709,-50.296176574059444
544.7099672161238,994.8667485838691,-42.12875956621273
524.6796816445983,983.2389246072819,-62.012613889554544
525.11510046754,987.209699540618,-50.24559864989574
521.2891252364467,991.1090943390456,-50.31606104021251
521.5624091815248,991.177415325315,-42.46302254082689
502.78535483574933,983.7253292408724,-27.02064415473174
499.23164383352116,987.6920253093565,-19.237966074041594
457.0622995620319,980.3500685759155,-11.995635614608457
469.1133057670051,972.6603886138488,3.9092860456934844
442.7128530130065,957.5645097969235,23.187836825011605
454.24584338178687,972.9163373833063,19.384193378982634
446.620405541138,965.2725446508238,23.220365772205596
420.49119729979157,969.555352745331,46.362315367633194
405.5686702390725,962.0736948907121,61.862409691382894
386.00133582823906,958.2844294432861,53.73292612665895
363.3442612920825,946.9941315331944,69.13013108451918
359.436708763951,939.2860966792942,69.0976021373252
340.38840990552336,912.456343399632,80.67658170731086
329.56412230476263,901.1446314490679,104.10078875049075
326.1205406535362,881.967848347805,119.81155644384168
333.5267395083948,897.2809267180944,108.09705658915126
318.1953062462717,889.6962775259647,111.81800105030771
307.15279937593374,905.3631974221574,123.3734251757736
299.55489387303516,901.5882080017132,127.19736097444083
268.8634752948255,901.8604722305784,130.66133694992686
257.98514273477696,902.1204998648877,150.12058144218466
288.8121835693127,901.8829059872638,150.58251288666366
315.75920421346746,897.8060805677782,151.0005965339846
342.13314434592854,909.0331560726651,131.73407840597963
337.9257952511816,916.6973431294072,119.8717197004074
337.6525113061036,916.6290221431377,112.01888514426436
334.2354422764145,920.630388562863,123.72726670167692
337.4067596987759,939.7388506778565,100.16305262245518
352.84832231190063,943.4883471929762,100.38167977851765
364.59953195025827,931.8615429326019,108.44579953398971
344.8965752830988,908.7292806411976,100.37984428933429
363.7541872096996,908.4774107365921,88.8892741150138
375.80621313088574,900.7877307745256,104.79419577531573
391.68319456695207,908.5090219391944,116.7799401426583
391.27428836554793,908.4060306016836,105.00017845033729
383.59378584939816,931.6443433792376,100.88215649584721
376.9778670595973,951.2861170736185,128.18954484966835
384.87454941289843,958.9982307923706,132.2062070125884
384.98467876390004,955.1640978315736,136.14537074332213
358.0366384035324,978.5502694600093,131.73815727083152
358.47307694268693,1001.8314103185085,139.5155328272142
350.79257442653716,1005.7593571708994,139.387048584379
370.08764460850546,1009.4792819158429,139.663391678096
344.5855618381405,1006.195795710054,182.4629205692056
333.1341487663983,1002.450378059786,186.2287325437331
317.4753865999093,987.0598012573103,182.122335354071
305.9423962311289,971.7089933871406,185.92587682847866
290.9933565488725,960.3585322204831,201.4388195765119
306.40636710803386,960.2392254235647,201.6692754406449
291.40226275027663,941.1511576328309,217.20771109400258
283.8869542606293,929.6732319395513,224.98304721795927
264.4562618223349,906.6092906344167,224.76992652944688
264.2380425527576,894.9692300632735,220.88174860936206
268.6911432548322,902.8139068897126,236.6200486404634
272.8719797280417,910.5902627298824,244.5055141154217
265.1374322526041,906.7806029581969,244.40252277791095
261.91206987095495,899.2438804280769,264.00248810755966
249.8875762875192,891.4930174932316,252.07486756435688
249.9151086252696,895.36182080527,252.06263096980115
242.59048706744915,891.6551523710951,263.7394013246114
265.5473581702213,906.8835942957076,256.182284470232
265.6554480887969,922.3577878276476,256.1312986595831
264.7285260512,925.9869578296361,228.63363126042026
245.97900404317483,922.4046947734447,244.0629572789893
265.24654188739277,941.5651624152998,240.36240714209237
252.56739049522523,937.5117904687127,208.7889340396568
257.0490432512632,929.9159243982401,228.50514701758505
276.01576481265266,925.8299215328376,220.9531287442705
287.412113208894,941.147078767979,213.2236798498978
294.7377544829274,925.5444009932037,205.5360393202572
290.58445034746836,940.9461946740223,193.6481877093605
292.05692055900846,956.763012853523,232.86341411185268
287.412113208894,941.147078767979,213.2236798498978
279.9783820162849,941.2745432946012,220.96128647397433
292.27513982858574,949.093727215716,240.74174157332016
295.174193022082,948.8245221354898,213.31341487663983
298.94510357767433,956.4989063543618,209.42013837549015
291.0749338459107,952.6545762314349,205.39021990180137
310.64226825674416,956.4438416788608,213.51939755166143
309.9876104480124,960.1413326671188,193.8745647086416
286.86656503495084,960.3197830043899,193.5278611962291
306.02499324438014,964.0050373980921,189.87727715376815
294.573580172638,960.2596197478243,193.64308912829563
287.1398489800289,960.3881039906594,201.38069575237213
279.9233173407841,952.8473025956877,216.99662983791615
298.6993519703467,979.6087348890806,197.56389796719577
263.93620655371615,968.269490600766,197.0815721984572
267.59902719073284,960.4686615714847,193.23826179174338
264.2910677958325,960.6348753142001,208.88682679610267
260.1652959981237,960.596126098107,200.97586841581992
268.33628201271586,949.0672145941785,216.83551467626563
268.2812173372151,941.329607970102,216.86100758159006
248.63332534555636,925.9359720189872,208.76955943161022
276.07082948815344,914.258181947964,224.9177853803287
268.7727205518704,914.4203168258274,236.5823191405832
248.57928038626855,898.8890191859606,212.78418216210432
245.07961434332827,910.5933218785212,220.54116339422742
252.5959425491886,922.0712475718009,212.76582727027073
237.45417650267933,922.2588753549887,220.38820596228072
264.07386824246817,929.6854685341071,208.98777870118747
259.92056410700906,925.7779160059756,201.09007663167344
255.73972763379956,937.310906374756,189.21446161533248
261.1207700896841,922.2170669902567,236.44159830319228
260.3294703084132,925.8809073434863,212.8688186077815
268.3087496749655,925.8890650731902,220.837900812204
246.14317835346426,926.3071487205112,247.97662810439857
249.2869634380752,941.5468075234664,224.42526244946035
249.12278912778578,956.95369978535,216.52144208266841
237.72644073154444,960.9458887591584,220.26176115187144
230.26517720118494,957.2055696899554,228.0116043705037
253.33115793874566,968.5988589375579,224.393651246858
242.39776070319633,961.1212799477908,243.8783886444403
242.2611187306573,961.0876293127625,239.95248122447526
238.7084274446422,945.7449791722964,251.72408518709247
249.804979274268,937.8156659001801,240.14316815630212
241.85323224546613,941.6752917663016,232.1618493573239
253.9858157474775,945.5910020241369,248.0296533474734
234.47354601214482,910.9216704991002,247.8542621588412
253.4953322490351,933.8826204667242,236.28762115503258
241.85323224546613,922.3659455573516,236.1519988987065
252.84067444030327,937.5801114549822,216.64176859579982
253.6584868431116,957.0954403389537,236.21216215527224
257.40288477716655,960.9000015295743,232.33010253246522
234.25532674256758,937.9003023458573,235.9857851559911
261.77440818220293,957.1382684198988,248.10715177965974
246.11462629950088,961.057037826373,240.009585332402
242.34371574390852,953.3836733237142,243.90388154976472
241.93480954250435,953.2817017024163,232.1241198574437
242.72508960756227,949.6178613491866,255.6958798366415
234.66321322775875,957.3126398923181,243.77539730692953
241.52488362488722,953.1787103649057,220.34435816512266
254.148970341554,949.4944756874164,251.9433241728827
246.60612951415624,953.4570928910485,255.7417670662255
242.26213844687024,941.7772633875994,243.94161104964493
250.6778563525771,945.7582354830652,263.67719863561973
249.75093431498016,949.3874054850536,236.1795312364569
234.82738753804819,941.9057476304346,251.67921767372144
245.97900404317483,941.7140409823947,240.07280773760664
230.40181917372396,937.9298741160337,235.92766133185137
250.15984051638432,949.4893771063515,247.95929292877793
254.12245772001657,945.625672375378,251.95556076743844
250.32299511046077,934.0835045606809,255.8620935793569
246.93345841852218,941.9536742924446,267.5592582584267
238.35356620252585,953.3795944588622,239.91985030565993
230.23764486343453,953.3367663779172,228.02384096505943
234.69176528172213,941.8710772791933,247.7533102537564
234.99156184833762,945.808201577501,255.59288849913074
227.1479047381114,945.8336944828256,251.55073343088623
238.21692422998683,953.3449241076208,235.99292316948194
238.27198890548763,941.7731845227474,239.95757980554015
226.68495357741944,937.9941162374512,239.79646464388964
238.5177405128153,937.9727021969787,247.8236706724519
219.46842193817463,930.4522951262664,255.41239872943362
218.89636114269402,926.4468498416892,239.7189662117033
222.9956203188653,903.3074495367941,251.63231072792445
218.97793843973224,899.4345673599038,247.66051607837545
220.01397011211782,911.2806106060684,275.1082173831023
207.93543156939424,915.1014872560968,259.2159402038413
208.3994024462992,922.941065501471,270.9702089908379
201.26444810409265,946.316020251564,282.55826403511907
197.13867630638396,946.2772710354709,274.64730565483626
181.75217836876,950.2653811444277,274.40359347993456
165.82013225719282,954.1158295646323,258.4542121927468
170.60056186363337,950.4570877924675,286.01000341604936
151.3330240194154,950.6059663595622,285.7214237277766
132.14808318844868,943.0508889376088,289.3832246485804
124.44106805076149,923.8017059852244,293.25814625789644
124.22386849739719,892.8512794889183,293.35909816298124
104.6575538027767,850.4443413398052,293.2091998796735
88.97156521340112,811.875615016341,293.1041691097368
76.75781230083669,757.7348024044909,285.25439370223273
61.208465684000146,719.200746432268,289.07629006847395
60.80017131232379,680.4790626768571,285.27580774270524
63.53647779822876,637.6887112316643,261.9141093033809
47.823976587315755,575.9418353872118,265.81146466938253
58.97610295054887,537.1314363212718,262.18433409982003
54.33251925988998,502.20615602677776,246.53474937924776
39.301290450867526,459.93993871505563,266.07455145233087
31.10338392825277,467.60004690694586,250.22816150265385
7.955020317845545,483.2190401411288,245.90354504341445
-19.210739651155087,514.2744974073715,233.61800410945636
-57.55543432262802,560.9632239347791,228.96197988099917
-76.87824078558938,611.3025345046475,216.72844447390293
-103.3635339285077,681.1479965125707,216.09622042185663
-161.35683439298845,731.7503938653874,199.3585985020369
-218.42423253608524,836.6526795592788,198.14921507344508
-282.6816496968894,957.1912936629736,208.55439931067187
-342.29425950757906,1074.0364956432627,242.5884476350232
-421.36407437810067,1163.9550713036563,276.42263158163087
-435.8787149536285,1195.1889789071704,295.7228003446641
-465.07013098254765,1195.8415972834762,342.37889595325623
-479.3920451938226,1157.6124364589336,381.5400773964606
-489.94202913329224,1088.4450857326408,424.78624198885456
-516.9696073582722,1022.9793048594578,436.37531674934866
-534.1620227090801,911.6579056048703,518.9111470277822
-575.1841862409692,796.4707621868835,581.4788944236819
-616.9425848786283,692.68404602999,620.4493889350595
-653.4841153706924,569.9010365415305,702.7333493088875
-709.2116064099362,478.1826617652308,780.7008509531798
-746.2171077789052,366.8684005241342,847.2403929986286
-770.8177614169978,317.4672288702055,925.531144682435
-781.9408258681609,263.59970020343343,949.093727215716
-742.6960276954925,228.7233662871623,977.2715453289351
-689.7289084447799,224.19786573396627,950.6080057919881
-648.4875059271005,254.47833867834584,911.8771445906606
-622.823288278872,319.5943568904774,861.0218576170253
-563.3779119271107,391.93914333640953,783.1757022020772
-541.977127765343,456.9817419812067,720.4835494281942
-485.9488204432707,514.019568354127,658.3359251120414
-437.46437366480916,594.3283384234168,595.9976138640617
-411.22809522110003,663.4487822039127,560.8357594081568
-378.3483656498397,736.1056018110161,494.3645383489776
-344.84151060759797,820.5054733267732,443.56125690220415
-296.329531491386,885.3737004991513,385.1998388848384
-265.6941973048901,973.9105606909599,361.8126475401896
-253.80940484263232,1097.4797713796252,345.8755028475576
-242.60680252685682,1220.885827474214,310.3047421902485
-221.1325987977546,1360.3218224368159,345.4778135244962
-206.67710176257947,1514.4315337041703,286.30572111781294
-206.35181229063957,1618.7892909403315,274.1843544941443
-200.5363707280264,1704.2109181014923,313.2292882890692
-208.2444055819266,1723.585526148073,309.12391081562004
-211.6064099361148,1716.009034685647,324.7979687253038
-234.6428189034992,1592.6335700774475,352.34152335405065
-239.06634783539744,1472.7965207282814,360.5288248280504
-235.31889075270357,1322.1232530986629,388.56490238766554
-231.8712302366252,1148.210652975277,412.7515512432891
-224.95143601535696,997.3385406841277,421.2131563785799
-217.65128764664797,862.0109823436139,437.4776299755778
-202.86234340982907,753.6018925932914,441.9898742180052
-213.82123355070286,703.6368178735859,469.46612757669544
-210.07683561664794,688.1320328552564,469.5742174952711
-228.82635762467308,684.5487500828519,485.0045632300531
-247.1394410935437,704.2466081689466,508.2112648050049
-270.28699912814267,719.8656014031296,503.8876680619784
-289.5004920130728,747.061432803251,499.58344592699854
-320.4386819148231,789.7528717757849,487.2020516690206
-362.7456878750644,859.6146492431158,474.5585903443073
-442.7434444993959,933.8479501154831,484.8832170007088
-546.2426006842297,1031.330780643747,479.0800120326514
-642.3906226897055,1117.0889141551909,465.5769299403977
-758.4312685779548,1171.9394492512736,440.10543865642194
-843.9987151575717,1195.5662739059721,411.27194301825807
-942.4900450204709,1180.321516521952,350.97816277729913
-1014.0047824690389,1106.9427378360604,303.0596584970403
-1051.245838283206,1013.8803770910556,247.87057761824886
-1044.9337949248725,893.7537283374038,232.67170746381285
-1007.5102099085826,792.7671529013477,221.7994932010422
-961.7300505269385,688.0229232204679,230.6883594295708
-916.6320812917766,621.7260736337079,211.96433032687008
-885.1493629322961,579.1722963499259,240.0513936971341
-881.3223679849899,536.6542091335982,248.1010334823819
-839.0163817409616,544.0308362182805,244.78593607399063
-820.5666562995519,524.3666287672141,225.505141919004
-779.4058113626979,504.4219993575789,194.79230930032176
-746.0600714821067,469.0623199563562,164.01421484400893
-698.227223363738,398.59381134230347,113.94818821921861
-636.1244665609562,300.68575915322765,36.71620787934719
-577.4397985040764,206.7790733838773,-28.80647315851999
-512.6653852232923,82.50819596906182,-23.49242605782811
-474.91855016748843,-29.982307923704838,-22.547455043261465
-474.017121035216,-114.71807396001694,20.92274120112373
-505.1439584363672,-176.34564300755102,24.588926901643273
-523.401977229737,-148.91017829737984,47.77064542937701
-566.5278153089996,-117.87307592297064,19.547653887922994
-605.4177522395519,-71.32139925458746,-0.815065287330536
-612.7719455675486,36.959818082627606,-13.064400177430624
-654.4528457730214,137.87378972431972,-14.02915368652904
-735.4703186103309,344.15218244762485,50.77992994549618
-908.2908026696172,647.863439604758,113.88496581401397
-1207.813065623837,960.3962617203633,186.83648340666795
-1664.14626809359,1203.938144014521,194.8779654622119
-2045.3671743153882,1380.7365410206341,161.09884619110503
-2315.7143367000963,1471.4912839756698,121.42168834413383
-2355.4424803577167,1417.4157332014502,97.46131451617016
-2240.0819851835236,1401.0186964967652,95.32001244053781
-2043.582670942677,1492.181325936992,78.3326620201598
-1861.9916077355672,1714.8873468513714,48.90456985820847
-1600.7301168084925,1918.3513228268575,99.22705511056274
-1234.2848985127441,2071.0946143688216,194.46701982838178
-940.9543524037261,2095.975689965483,206.62611595193061
-692.6575334084525,1939.02097046392,179.47821121381924
-496.13476569470726,1576.3487021561903,34.50964396608424
-349.3241830798489,1229.6145982573053,-103.40840144187874
-176.6413607093146,964.4894025992568,-178.41974578474813
-25.471287340733078,754.0118185109085,-218.61593918412507
126.48865820642116,578.4890864872307,-243.21965197085655
266.5538180724305,400.1060504861498,-165.951675648667
331.90131186490805,299.15108625269596,-148.93363177027834
371.3633095909409,275.91481290756786,-116.8676357369744
397.8463593581906,302.6160819443949,-136.1841199594153
402.84296880178255,407.1441317881234,-124.68783937430214
406.8575915322766,488.2554185170268,-136.67562317407067
446.15439523180703,576.9727684785325,-132.46113606583287
482.3349461844769,615.6995508150083,-96.72864841714552
513.2435643160509,646.3777130824492,-100.29367826933766
525.1864806024483,603.9034736632796,-80.34843702997456
506.0566044469825,565.4673104475025,-68.73142204524481
502.613022795756,507.6718349283395,-45.04035526912861
492.27921869343766,527.377850744138,-13.864673461375702
442.23766525775886,593.4309881559963,-26.610922180357207
390.71344444841003,706.450214905192,19.33147405077167
325.9930761269139,838.4585969724626,13.992036016376645
279.5755941121586,1052.1737800370158,75.36967262010984
187.295355702508,1359.026782846334,127.89688629654368
-37.313761580152246,1828.7590563546169,107.24967241616659
-246.3736342175973,2337.0264055513353,82.78005231144174
-512.7908103174888,2825.5520488648012,-36.67266599705302
-892.0191910591283,3202.6736959104283,-165.28886011023135
-1573.493496759852,3563.377911927111,-231.6581095481128
-2249.402191370142,3753.5651828096243,-324.8407968062489
-2581.737902341779,3557.9326273498086,-427.27434954852066
-2411.3433231531667,3006.4599022092157,-509.2034486802323
-2017.804245078595,2369.198452070789,-469.7618452784591
-1708.0042624137704,1744.4387227034717,-404.1441266895423
-1584.853135372426,1353.387752188566,-326.41319920666086
-1484.4620742047491,1070.742812275344,-261.16155873820315
-1358.1192354167836,895.774805871526,-246.90490636455877
-1235.2638260772028,809.7454278474302,-240.84983149189586
-1112.3370366027136,716.012093834286,-230.8433562939434
-1013.589757970357,606.7433833164231,-248.6180296023617
-926.3754697067808,462.81349900322743,-258.6000316112026
-842.1693442714894,322.986952731055,-245.09389037031
-771.2766337128378,172.22191064226828,-168.95473989588697
-708.9648350863955,71.50056339320768,-128.43529645699604
-698.9828330775546,-56.42762819107443,-147.4774770181459
-693.0735776233475,-157.34731024355924,-178.44625840628555
-715.5287483493345,-300.88868267961027,-241.0915042343716
-711.0368984311666,-448.5068805351471,-303.32070584756264
-671.3454645572137,-580.8160788852463,-353.3000565942499
-603.0448726119522,-712.9223537089629,-355.75553323510076
-604.2981038377021,-775.0271499441706,-379.11213309336017
-673.5766036312095,-820.8134276230925,-368.2215639387559
-723.3989180810981,-839.6669606848416,-357.131130406408
-787.7358731065146,-827.2814875620115,-326.73950839481375
-808.4850586081894,-760.8561537324164,-272.3294907027375
-812.4578729739515,-655.5888096342788,-186.40208429993933
-824.4660510979795,-519.4485374720216,-116.39856627900457
-824.2865810444954,-352.3456022189025,-34.54247882814213
-815.4935681399867,-139.72763379951363,-46.901847215919815
-845.6180245037808,115.57259614649244,-79.61128417961282
-939.0158718828552,437.5918381914314,-62.47352561782056
-1178.159718150439,741.6028919151801,-23.91050970514906
-1468.6972615521104,1158.6729413204307,64.52142168834415
-1858.4429953144042,1638.541193985714,166.9540566860243
-2111.862868563679,2105.1633330444142,204.75493670111612
-2072.5732028776392,2599.378992826297,125.18342145380942
-1883.680971585608,2846.0891333941768,189.97415019400103
-1661.8213151280002,2863.2611544207252,142.21982022403168
-1413.8569236181572,2737.1222588753553,99.26417278071514
-1174.1114447849163,2498.9165515237114,64.4127199400407
-946.3823018054076,2137.1008448348825,41.57209648554808
-650.2760881646639,1751.3320043032027,-3.7111551855118727
-527.9692861476651,1491.3757501287394,22.5456195540781
-384.1791029556475,1308.071563683827,-13.92840572468682
-219.10438325014152,1140.5729785400724,4.8077987895968555
-85.21258533750058,1019.5693738432595,3.2969770512866274
6.753040028959941,983.9690414157741,-3.0546109017860332
71.60773556719165,967.8514069534449,-17.727256504514795
167.34460799559483,959.2327655213555,-31.962596809307975
251.22136509409432,927.4573886087503,-50.222145176997245
354.2300377804857,856.8797703599089,-64.13953796658392
449.0412118307476,755.3445876012706,-85.92455119740178
570.7188489443389,599.5064573529188,-99.27467585770881
658.8335466239747,467.3879459346465,-85.73518989665178
723.635492242509,366.2953200124406,-84.42352893189826
777.966991786186,284.87505927100494,-55.86270540908466
789.6651761814688,207.58260975970393,-35.80356186873194
809.3691525648413,172.78581370804508,-15.767973772899003
801.4174055360394,176.64543957416652,-23.74929257187725
783.4856959308225,192.5774856857337,11.249917148057698
741.7517704822749,227.82601601974173,22.279677565733458
688.4012379354826,313.3547133832655,21.1920482529712
611.6573957467638,418.30186659052794,7.914598767163099
557.7337826882779,499.8251186694743,-8.866626217923553
540.0733175957132,631.6815630210114,10.047110889039581
502.2163531889076,805.9347483595317,-6.80626921527739
481.7068009972825,1138.890446788659,-0.3874901214991868
412.5435291358416,1657.9667878429436,8.59924642971861
193.90821534366987,2429.4330887713954,-12.976704583114522
-77.76386431656071,3053.795128815651,-89.79559788510858
-372.1077024264148,3445.7332524358476,-217.19037591838196
-632.3923052214569,3613.262429065991,-315.84486037535754
-824.8739375831707,3603.218224368159,-310.8451917831268
-1080.950171567253,3458.989563204561,-223.92764093752712
-1304.5025569384043,3259.8797754584903,-187.35857810771265
-1368.0104826826696,2900.735725247664,-167.47513167085603
-1251.049033054101,2524.5828086043657,-160.52984454426334
-1098.4281074576948,2229.5075280549427,-141.54986667210517
-1068.2241132292884,1966.5023224036754,-104.88800966690971
-1085.1310080404626,1695.9104281278521,-92.45501776855502
-1124.7265885903955,1468.0956289864532,-76.5810954811276
-1079.328822788618,1270.5664013704989,-59.536131094716346
-1068.3056905263265,1115.8652546996173,-43.1507191548592
-1038.6829345393178,964.7127204498988,-46.121560369749105
-994.2610371533603,763.0791350767082,-56.54989216501048
-962.8476594963623,568.8955963555344,-110.36898431166607
-890.6099432527928,371.128774861956,-96.84591578163798
-853.2444820606427,185.1661882498101,-91.73418037760092
-843.7794761717814,-16.26763471725819,-110.53621777059446
-837.2951007734548,-209.72911238802243,-105.86183865030362
-843.4919161997217,-310.696313216032,-152.70964090693562
-848.3518836707746,-415.1907124247322,-160.2789943558708
-853.2944481550785,-511.98217536059724,-171.79974813009542
-881.7659445376352,-628.0065057894388,-191.45783728388392
-903.3227452799887,-721.1167931964535,-238.56260802618635
-909.547093044006,-806.6444708437642,-289.38730351343224
-937.1477517806795,-837.4878271377077,-301.4709406372207
-972.9459091534827,-860.6720949559739,-329.40096771068613
-967.3211545226964,-821.6383780393918,-286.27716906384956
-988.6699331576023,-763.087292806412,-247.54834729494786
-987.5360087287709,-615.0540704521933,-134.21708738458088
-1029.9133751077077,-412.9075678238747,-64.89055895744215
-1063.1561236507882,-130.35950095088538,-82.04014622730494
-1108.2275802644126,171.5183064553135,-111.20617132252096
-1256.280177226678,489.9144967955419,-114.49781525801372
-1465.9236334528102,805.9388272243835,-4.890191859605473
-1641.5085681654798,1187.1944037974233,73.6105601811016
-1781.4034354239218,1653.3882620466727,164.13352164092734
-1819.602004762075,2114.330581799086,189.47856811449375
-1755.3088975338164,2508.4305037907952,185.18760229028265
-1649.3909744917992,2774.5764353780346,185.87591073404275
-1549.6423345382982,2929.1552161033587,253.56671238394358
-1455.8386401064586,2877.577970050935,192.35212840266556
-1285.3013006480298,2740.3547592704954,140.42511968919052
-1090.2397862674818,2549.2293494720425,140.06719929843527
-907.423024172373,2300.1024814794046,131.87174009473165
-710.6912146349672,2011.8592995569336,88.69583394941189
-547.0869257085754,1770.6148378906155,80.18650609535366
-409.36813284862825,1587.7797209036728,90.71538190921468
-314.855735648769,1443.6938200098914,69.0695599414683
-230.40385860614992,1319.3700193236223,86.45235630923915
-157.75927559360233,1237.568384718533,87.81653265896102
-62.32179184532946,1186.3888279891707,73.72028164561803
24.917887351949954,1142.8775371814027,43.776824909627656
124.1269954571643,1099.376443535764,25.786583593785853
211.55848327410482,1025.0187372854136,7.723952623984745
287.320338749726,935.2694345163743,-10.461574543804462
400.88103480801294,798.6978223960273,-39.69673639826037
495.4750093049105,666.2122131410829,-61.38059378075082
599.0027175437076,553.2837411348422,-51.599577837487836
683.0997333442104,455.9110399575798,-50.011471807396006
766.786823227096,377.7446936517568,-64.19266518128006
863.5599312711273,342.3534030479318,-43.00061692830886
894.6337434292038,299.6966344266391,-26.69280539225934
922.5627507864563,299.7272259130284,1.1978300438987832
918.3543819754963,307.3924326859835,-10.664905956672259
923.1062595279735,357.7929262286306,4.934712669464089
892.6045081653778,423.76448634345064,0.33064706092294516
809.2457669030711,490.42741405066977,26.3294805055753
731.7381572708316,564.2885185053001,-2.5530430881085797
684.922985933015,637.8783784472781,-34.89948147430571
669.2886969556373,761.5220284194909,-66.94783641712512
611.509536895882,978.2412954474771,-111.71500971279694
552.4067851916813,1458.2349732069567,-137.76773923817004
385.7321307480129,2101.3393972457466,-189.52955392514264
88.55756043093209,2761.0346040696877,-231.5275858728516
-314.3774887448823,3370.8962795653974,-314.1888412454814
-730.613410287917,3771.879285994708,-404.1930730677653
-1056.9868405622717,3902.137835040509,-401.6723345892839
-1352.092712598084,3843.0452804984375,-347.0237033033707
-1556.4030530303419,3678.5446610208382,-318.1320838410671
-1646.7193180137972,3362.1267201337873,-302.71907328190565
-1628.782509827515,2979.315056619743,-261.9130895871679
-1569.4350262321998,2592.067627579245,-247.9439971855833
-1547.8068453549379,2205.330056645236,-210.99356049211508
-1580.2032294412465,1826.6992296044011,-178.8041787970408
-1553.6396220931717,1498.136468620783,-122.35370896279568
-1477.6503699020564,1265.5493976026473,-104.73199308632408
-1381.9907919625969,1129.4682689807428,-94.99084804698853
-1328.5576624025537,978.3106361499596,-77.9819816145167
-1280.2639025559188,857.753667154431,-104.32410660113291
-1196.4126383627438,686.9440634671372,-94.64271693187787
-1082.92842102043,519.4566952017254,-119.85030565993485
-976.9941825190051,355.93194413994587,-141.25924755140647
-885.5174804851812,212.07547939408468,-139.40336404378664
-829.4310493389692,64.44616663182637,-157.68891517490684
-807.5622154354444,-55.76542448236657,-168.72938261281888
-812.6944471353623,-179.6372869430438,-180.1624407927274
-834.4133827555793,-295.96039422228796,-227.19073281905648
-836.2386747768096,-419.9996940851361,-254.27235600332432
-849.8682016794727,-559.4581228044236,-285.4022525531145
-832.5891104505617,-668.2383892562701,-320.0980966996885
-852.536799008836,-745.4982078487558,-324.06071390332073
-873.0840807003412,-830.6322750378571,-343.70452703012757
-905.5742786782439,-892.6024687329517,-379.3038397414
-917.0522043715234,-919.525016187995,-371.53564163093415
-916.0987697123892,-880.6677101762581,-352.0294901928794
-917.0634212498663,-779.5037041191437,-289.59124675602783
-932.3795587687948,-623.887872005221,-207.9293132721164
-969.8898196631878,-452.4123936308526,-103.1045260104113
-1024.5904564759628,-261.95387823568706,-53.54621608806271
-1057.98616245099,-41.237629567691314,-62.64035119026375
-1063.6353902708877,214.22606088725507,-55.73738228650967
-1205.4575211718582,444.36377356181777,27.70344613094176
-1437.5041425971153,745.2973237547991,160.5736923414214
-1692.463787327987,1154.5940764685188,277.0375204580566
-1965.6763522711633,1861.6652985474143,360.82556224602695
-2039.5751862256736,2416.2991439482394,448.1142897931506
-1982.7973874870627,2818.2304864556195,447.6085105515136
-1903.9937185481283,2988.0030387543147,463.91479251324364
-1774.2042389602977,3025.2940606629177,422.56224092834964
-1568.4255071813516,2945.868364834067,374.8925474040575
-1285.6683984847018,2738.386706979448,352.3557993810323
-1064.5633320246977,2415.524159626376,352.832006852493
-880.1782463940287,2034.4868023229137,305.8597992178777
-722.3893990302499,1707.8207134954346,258.30533362565205
-576.5720200068322,1458.3777334767735,182.83817613558148
-448.22237971172626,1252.0177634564302,150.13587718537931
-331.163037326712,1142.357481912784,105.16333304441376
-263.13572932652846,1068.111944445861,82.88508308137847
-141.02471282242155,1090.0256458627566,45.39409482341065
-76.17178139323828,1131.8442077569814,18.75217327017891
7.104107926763982,1150.1175222935458,-27.157592042134674
178.57576236533376,1028.5775468687066,-55.57606318161657
262.6717584496235,950.5121524679682,-57.977596834800885
525.5668347498892,677.3750465245523,-84.51520141944498
601.710064089164,583.8619712134114,-90.9084141883314
677.7176711721129,528.9339376851423,-109.2075275450842
735.3571301106903,466.65578969372825,-100.28501068152734
800.2386135938369,473.7163047523875,-118.96009340600513
827.3212564943178,469.67414968414295,-114.61610233871916
848.8790769528841,485.5470522553574,-51.55277286331215
840.6805586005416,531.8258528651477,-75.37946189575442
775.607368469355,574.9221191742339,-72.57493639520123
655.7356487689477,807.4551452330817,-134.02436102032806
430.8698689154809,1840.9650594239624,-278.24078558937055
-608.9429111878164,3409.3599751189245,-597.3783096164337
-824.632264840695,3638.908291822386,-644.5544604936447
-1002.2821248846446,3687.5181636950438,-557.1137952307873
-1257.3508792503046,3609.1937613762097,-454.70471567762695
-1415.4272865861433,3386.395966002662,-413.1502602825634
-1433.313108961776,2976.5414285204433,-400.26206706673537
-1393.452402196469,2558.4883726858816,-386.4806024483387
-1375.892889008989,2198.752887071528,-361.4557468656473
-1410.4306771425513,1870.8019558156966,-290.22449052428715
-1381.5625111531463,1476.151387068979,-264.91207496953604
-1308.8261536814307,1232.16388878975,-227.6781571688599
-1250.6921323795589,1065.746202831752,-183.07577001320536
-1207.7824741374477,965.1369223944978,-146.77183339876515
-1130.6613369499269,856.4219177802819,-121.70211030270276
-989.1706138181745,719.8819168625373,-123.04609627140768
-847.1894071879797,575.7409512932552,-108.65993993871507
-740.5168941483586,439.4334456720696,-114.45090831221671
-638.0802822574478,326.2327094369638,-136.08214833811752
-600.7974180785488,205.9021174407163,-146.89215991189653
-582.2926279616383,116.73813177792623,-150.2388685228901
-630.2763940795278,4.662703369652227,-178.05162823186308
-682.3053744143006,-95.84506431860014,-213.81307582099905
-726.8455588809635,-208.0526989338867,-253.3484931143663
-772.7491039243779,-339.91220243406264,-328.158953363279
-809.3089893082756,-471.4199038407612,-355.73513891084116
-873.553150158311,-587.4503525668806,-407.32666099024647
-905.2245160171925,-668.5239097959038,-415.37630077549426
-971.7140919682055,-710.745259594255,-435.853222048304
-1032.6360173963587,-760.2891915180006,-405.2015724024004
-1043.3430376326269,-756.1256902204118,-381.8286570847334
-1049.3593632891966,-728.6086482132023,-338.84048069422283
-1030.2396842958606,-646.6979039733243,-248.56398464307387
-1025.9364818770937,-518.1749119220121,-150.8170476156486
-1076.1778996905161,-358.4904121183075,-77.54105632402504
-1087.037877358731,-161.26811908245935,-97.99207680502518
-1059.2710048793422,8.645307011058822,-109.92336832659471
-1128.9991995227729,137.52810592812023,-36.83480087491652
-1263.5507538252104,228.46945695013082,62.8830436489525
-1474.387278020527,470.8172515588912,153.0981527840802
-1706.0566044469824,883.8420867472582,273.82235523853717
-1952.9298996089392,1463.0990195428615,366.2861425665238
-2034.4664079986542,2111.495770727007,547.334716748329
-1987.773602606395,2452.101380185895,601.8293708860825
-1957.824537431233,2656.3199461589843,534.8707254770998
-1922.1650614633952,2814.6410853859375,530.9458377733478
-1742.9295427082648,2913.176263045995,458.73055528646387
-1503.2452468478025,2898.9410247128226,376.0274915491019
-1193.1801379676037,2679.742827571087,365.7130620548302
-976.7739238170018,2294.912125955347,354.5543075362127
-793.5921033176468,1917.4335782351773,272.22955851386564
-639.139767402732,1644.9959976138643,228.36748532883303
-526.4223766525777,1465.7298873723446,183.56421407922176
-405.9989904809492,1305.716019231848,134.88806065272036
-315.2054983098204,1219.6111822079918,105.14191900394123
-196.7297701049798,1195.2705562042086,83.45082163633862
-97.49394543498545,1194.2610371533603,57.4683505580397
1.4412465010987443,1208.6186414320896,19.655641834877358
108.11031289991998,1226.7899843473563,-18.053973579152924
200.67505213299142,1218.3671284281586,-12.714433573136597
299.58446564321156,1170.9299302004254,-38.54517087894439
469.12248321292196,948.495153798698,-101.97366073021878
548.5757113795231,816.1961526107284,-116.03554730718443
845.0612594514947,484.58953873137114,-161.49653551416642
979.7168248076562,356.05125093686434,-139.4227386518332
984.115880550443,375.46766734817703,-127.64807554057708
962.9302565096135,418.6128800354862,-81.01563734812602
926.4937567874862,485.08919967573036,-34.690235707402636
904.9532715045405,574.4877200675053,-7.842096944420369
828.8365547868029,671.8685789744715,-1.461538853737005
729.4356380619274,765.5264539878552,0.6581911254097985
635.3403047931761,885.5552099850612,-71.79934024361022
589.9129672212224,1117.8333069906646,-96.81114345877543
112.95396491156511,2122.9675781230085,-174.0645378391194
-771.4877149689243,3478.078650711507,-411.6635140440416
-924.0739702140895,3603.2386186924186,-394.74846150316375
-1370.1926753784423,3131.9053907297603,-278.1775631841659
-1334.1864958981917,2713.8829263815883,-264.4542223899089
-1304.930837747855,2431.329760927534,-251.2886663641509
-1309.733701110981,2218.718930521636,-234.94465490254063
-1352.3986274619774,2025.8803974853802,-203.5363758266075
-1385.641376005058,1816.971136932592,-230.8015479292113
-1391.922827877002,1530.6144300041299,-241.70333396215835
-1375.0975103628662,1259.512677621818,-256.23530971330683
-1330.8418267196241,1015.3610050322997,-262.5983388822891
-1204.9578602274987,793.9296293841426,-252.11667592908898
-1079.6449348146411,607.1125205855211,-265.30772486017145
-934.3272167355826,428.0544324514488,-258.6020710436286
-830.4711598762066,284.3131956376541,-233.01433211137342
-747.0838665599365,182.90139854078612,-251.04597390546215
-678.4559457103089,58.6004394976878,-245.6741088954944
-656.6136244283217,-65.4798529569221,-256.7023397388507
-650.0497111653827,-170.09784177063526,-268.02424885154466
-720.910810521432,-266.48549708616093,-292.308790463614
-760.7246103409423,-370.7800319171175,-308.2520534535239
-800.2926585531247,-478.8750490738428,-316.32922557652205
-823.1404200211083,-536.5563163771524,-296.85366562485666
-873.3971335777253,-598.0003365063503,-289.5494383912958
-947.9485859085419,-651.837273686733,-317.95669265243487
-1002.3331106952936,-655.3920044051741,-330.5338724233046
-1041.8440547995494,-659.2026838930726,-358.58524572611447
-1026.5992974155295,-643.9150984281075,-366.2575905125604
-1012.8851340671891,-608.7063370264055,-311.22656564678056
-990.0190177073721,-542.300377804857,-220.8409599608429
-999.4360969342232,-463.43858504178297,-64.26353545808203
-1015.4609372211715,-311.8628685636788,-2.2210438834872255
-1010.8487607898724,-87.71160386064558,-26.455823344363264
-940.2283144600858,162.09510893118446,-151.8286060989227
-1079.7673007601986,485.49300729606955,-21.57270831527586
-1322.3577878276478,789.6366241275055,28.712149408819528
-1511.9434261445042,1159.7742348304469,150.21133618513971
-1670.4481142897932,1641.732905732335,256.1007071731937
-1709.4420622740693,2164.2762819107443,245.90456475962745
-1557.9836131604577,3014.026196509512,217.834836564984
-1433.364094772425,3044.2913737106965,250.99600781102623
-1229.012965691648,2980.9567997226377,269.96884766969356
-1024.7026252593905,2855.8172260659862,300.9243727470645
-859.7869812831091,2626.48304976725,327.71537681063364
-728.7259155776948,2276.9141347962864,291.61232429015007
-606.2732941422403,1973.5281671110931,219.90180132869023
-501.8349793252538,1751.6991021398746,167.27016871204745
-218.8698485211566,1257.4834423579919,98.60778145442124
-52.58635721678658,1081.5721984571696,42.82267644914421
38.58799895988947,1068.9481117405026,8.909444101706496
141.78542111730306,1083.3770961541404,-17.065766597156014
419.9018013286902,879.5868109905015,-63.232398423518745
488.2574579494527,774.5274889998115,-69.70331356783409
651.0969597161111,540.8166907149741,-101.79724982537361
712.3451943324173,443.69076086125233,-92.70301275155126
793.2423406565954,381.2688328838085,-79.50676326778259
854.9525067173805,349.9115396185242,-70.62738040003467
856.7237537793234,408.2841745142327,-31.55154920385657
810.9721464516426,478.27851508925073,-32.47296477390343
765.9832868512694,579.3589044169008,-17.78945919350645
674.8879586810991,719.4495571882346,-7.852681598711079
161.9237966074042,2466.0103093309135,-276.52868206778055
-177.7090035843025,2955.0967965615173,-397.08055248224423
-467.4634049344068,3374.220554419705,-508.7986213436801
-770.6678631336899,3782.382362988381,-561.8136672564026
-1068.570816741701,3893.500838716586,-511.7058322668802
-1327.568537675965,3764.9860043949775,-401.3378676714271
-1535.3561103944774,3365.032911340774,-312.83465811464674
-1585.9034430717934,2971.3918616449046,-245.54562465265917
-1534.0202821554763,2580.4020741027775,-223.82566931622932
-1430.0602142423766,2115.146354769468,-240.32263820978625
-1354.407468401544,1758.9084957656285,-206.59042588447636
-1294.6826898074269,1425.8181947963883,-192.7977443877369
-1257.3712735745644,1154.8897941702826,-171.70185537364955
-1235.253628915073,953.6365629445326,-158.91767321154524
-1244.1047656437215,752.5903341100174,-150.52336934631094
-1203.101976719879,612.8861537834022,-161.21203469074558
-1159.121616454141,484.5191783126756,-199.36573651552774
-1076.0351394206994,340.5505447833868,-217.2586969046515
-1016.3623663534439,192.82425700927433,-243.33895876777498
-937.1824221319207,21.838446360377908,-257.27440053433133
-860.1642762819109,-102.35095572902063,-232.15471134383304
-830.0714311207191,-207.04419959925153,-231.35015525179344
-807.0574559100204,-299.9352480204759,-214.99390719562746
-815.3355121269751,-400.42828080945077,-210.85385937093707
-822.9578908189852,-504.6188045866836,-187.06897870322692
-830.8260211183228,-624.3192119633107,-167.16003936104585
-846.5378085278868,-724.6837605094503,-155.28238491227893
-867.0035129223538,-817.5217836876,-170.97479771379628
-876.426710446483,-868.0976684188792,-210.19104383250144
-927.1759469339684,-864.0126852696895,-230.58842724069893
-951.1158244660513,-825.4205054733268,-262.47393350430576
-941.6375622664215,-767.1070141179711,-223.28318029092506
-908.6303681685388,-689.5606552696385,-175.9540719817675
-875.6231740706563,-592.7039304961429,-132.61613293020554
-860.3835152677012,-476.01372538022673,-50.36439558870767
-869.9637490886288,-343.1263479373691,90.33013312395161
-821.5751556341871,-18.545170878944393,86.03529237813117
-853.1567864663265,422.7570067250285,84.07356232760424
-1052.8977785482302,888.888662285286,114.83024274344453
-1310.9165719180355,1487.65378595137,214.91029046616327
-1482.6367821835186,1935.523343853406,391.3599445274381
-1620.8695120148066,2444.616663182637,521.0087032778779
-1668.8165683490288,2750.633498697313,519.2588702564077
-1510.464837635686,2838.3290930134144,513.4852370585266
-1378.0240958941129,2782.6117991363008,456.7879959007409
-1222.2624443617342,2657.2478879127943,420.29745121932575
-963.5808354534935,2469.0184721591986,365.9384193378983
-765.3796148531865,2312.4410476564376,338.0379640346092
-609.0214293362158,2156.3428897737763,325.2089143591339
-505.846542907109,1993.1169155623993,335.15420658430764
-399.4208011910286,1879.9182187597194,317.5069978025116
-307.4260833210118,1770.951344240898,327.10150765042096
-149.97884088858072,1215.348768437744,205.74712057634363
-121.51958110057973,1052.3165403068326,171.40103909082106
23.04415881060301,760.0791299781272,68.58784600245752
98.88779552650499,681.9382765776285,50.364497560328964
204.08702258161554,587.7430111200053,-6.61128927819388
250.4106907047769,560.3738279636779,2.024177471409707
538.4978560466623,330.05766495184395,26.739508394813726
576.6780704929819,298.776850402533,23.49232408620681
587.993861308398,263.8689052836596,23.77957814340269
588.6750317386671,283.3495638163899,39.422534708590604
574.3235457572158,337.80138987319833,58.647040528620884
522.9634992581565,474.0334364946236,104.5137738167468
477.3730070921263,644.4779817776714,87.55711685437944
426.82975327966227,819.5336837758053,149.00297247276083
144.14300500170805,1921.1249509261575,211.69614496285683
-115.66437060566045,2336.9346310921674,186.7783595825282
-380.44388246750935,2767.9380828315484,126.41319920666079
-757.872464093243,3130.0597043842704,52.81987222955851
-1202.8572448287641,3434.251247877716,-68.6857387589034
-1636.328409803552,3556.831333839793,-154.08421836202987
-1873.6163725635156,3337.9594458862102,-176.52409334482215
-1815.584322882942,2919.4883064043283,-193.86538726272482
-1629.7818317162335,2411.3637174774262,-173.66990766469692
-1476.661245175468,1954.2147420372914,-107.0406305925061
-1373.1294580718188,1609.571056375011,-49.38230690398863
-1314.730310554573,1365.9812474188434,19.032901143611735
-1249.4276842754664,1180.0461931444481,52.03520060367201
-1201.5927967246716,1032.340299694595,17.92844651333534
-1131.2119837049352,880.4515303391067,-31.524934610697844
-1072.0072603794365,724.884644603407,-69.35956723243922
-1000.1825292021231,584.941850682955,-79.58538338780318
-933.3533877521886,437.01875767973775,-121.25649431763141
-861.0901786032947,320.3571046177849,-123.70483294499142
-815.5833031667288,234.8539001595856,-126.65895081398848
-796.5054325381248,149.69637949758584,-114.31222690725171
-798.0574406142772,45.035460631306314,-137.5301453605462
-814.3423085355347,-40.02579882018835,-145.33607297089222
-796.1087629312763,-129.25820744086923,-156.53663585424178
-801.2420143474072,-233.82092763583898,-171.95882385931998
-802.7940224235597,-338.48154058725464,-195.1767423126144
-792.6498855368552,-443.1972182141711,-214.29438187352466
-802.2627502765981,-559.4723988314053,-245.44365303136138
-808.8684719042692,-699.1623031310387,-296.09091789754916
-806.1580662101738,-765.1308040972199,-315.45124991714806
-815.1468646275742,-792.42554797,-346.89012047947057
-814.792003385458,-780.7518367638287,-339.0750154232078
-798.2338515191224,-772.8592332753796,-307.45667480740116
-829.2077314883269,-690.5620165907828,-217.93272932142986
-859.6646153375516,-554.0679029026223,-124.65826760412578
-928.4118429840976,-363.1484757791907,-36.065730907088565
-928.0906323770096,-85.01057955570965,-84.09467045321287
-935.7854109201411,252.03407891583777,-42.176074398494904
-1066.5211871536153,725.2649987508478,-22.18311044036445
-1287.60585928936,1095.4709304400587,79.22093681328488
-1485.2268613644824,1457.8678753702845,192.77735006347737
-1677.8410568338834,1808.9357731743257,341.76808594168244
-1736.9947943487327,2107.406708712965,351.6481163292256
-1611.233193802165,2319.4668923638555,380.2888856031367
-1516.5117547786454,2462.206767856506,416.54795470420584
-1417.9663799564582,2480.337322123253,366.94283980768154
-1265.9470869257086,2447.71660047009,314.38564647458617
-1087.55793262735,2310.4627982032603,266.50079282935565
-893.4865626896036,2134.551554302438,234.67952868716637
-722.0936813284864,1904.8502801670297,226.2474953220519
-573.0050526938353,1733.4665762518293,229.05885292123207
-438.8685228900797,1608.6635089454608,235.41372436051049
-347.935329597773,1426.0527295253733,229.54321812239658
-283.76050945022,1274.5942804117615,223.16591292643258
-220.3209046922242,1115.233030647571,197.18150438732903
-156.22766184170948,1010.0982496571206,178.87351949952333
-96.12558824879038,962.8894678610943,144.6110547434649
-2.13308316295575,899.7669948453347,91.2872387614527
51.87051643527607,868.468845120403,100.05098581064891
138.72933162700824,790.1026344368363,66.29481015433406
214.38207746784073,723.499869986183,40.180387798075806
279.1289584108743,633.9789836488505,37.52759607001372
356.3357517602852,575.4890813886497,54.57990241315842
397.1978198467367,512.9886352628065,24.005853171062494
489.1374730412527,396.28109497126957,33.62595789591757
581.4034354239216,364.61788684209193,35.11484553848665
622.9466739406424,321.59707953276603,20.183752861578625
653.5300026002765,286.54127556301086,20.760198436775045
665.8532730341147,298.2292627961639,40.52841694156517
665.9888952904407,336.88160584909224,36.4754528814631
667.9783616219606,406.8953210321568,79.43986988421123
653.7900302345857,484.55996696119473,98.58840684637467
623.8328073297201,608.597227391617,97.72124017885824
574.4163399325968,725.0110894138163,92.66375367735161
522.3995961923797,961.4883777844626,98.93602810337883
472.1795924194297,1337.449587779721,128.31293051143868
321.1116946153886,1853.0384993856212,108.61201327670511
50.34084014418788,2411.9755472052134,71.2732686493349
-250.37500063732267,2877.6901388343626,-32.9177649860044
-1005.6573855496017,3496.5661056527974,-281.79653602402453
-1348.9417894999824,3491.4063416151284,-294.7703854017427
-1559.8394966680773,3311.7935278611967,-230.60474270010658
-1656.9674659542252,2987.9418557815366,-187.7960363630802
-1584.3636715901966,2608.7501848235643,-126.56003834132963
-1405.3422932397916,2174.3000922843175,-94.94067800931002
-1267.650013001382,1833.1234417461624,-52.481020531985955
-1175.437075861788,1523.3846420541165,4.889926733390098
-1172.5308846548007,1233.4793227044913,37.308459055844764
-1136.4941136881607,993.1138564137601,15.111276531741217
-1057.3947270474628,829.8317978106693,-2.7761467983460206
-1015.7444183283793,705.7394727047464,2.191043832501415
-983.0512968240939,596.8398994559815,-32.27350828264495
-930.6827509903994,487.89341926141964,-54.66922955341529
-854.892343460815,363.3962668189443,-64.88780572366711
-771.449985469044,231.1033839282528,-74.96545711328538
-731.349645393687,98.89697297242179,-113.16504616765155
-704.4281176548567,33.02299969918372,-100.76570490432513
-713.6881605849094,-52.26881758806525,-128.08859294458352
-731.0100798947653,-110.55661209485402,-171.32252094242173
-747.3765251130611,-187.91534315999857,-183.08086859427024
-799.8144116492381,-288.52564331346593,-230.6220778757272
-825.1696552849343,-393.1791182513907,-273.8192960898982
-846.4521523659967,-524.8397770900359,-305.09093319329236
-914.4131788123367,-621.4966374857878,-356.803801502042
-977.5662433144857,-717.9444560578792,-380.9720954658319
-1016.5907827851511,-767.9737728990023,-385.31200766826595
-1031.463343751434,-787.0281900547079,-365.8476645949433
-995.1696042991238,-713.5158285449161,-334.15488469558926
-997.834122763635,-596.3351399305574,-212.92694243192122
-1029.5462772710355,-425.3980717166413,-162.95880856357678
-1013.1553588636284,-209.0061335930211,-179.1417048635365
-991.0305761906463,61.89555046830468,-152.25178832730853
-1105.0154741935319,377.00539939734773,-60.83106871357702
-1354.499242860712,739.342181071008,0.9281304013093157
-1599.7409920819039,1213.7376168212388,50.59882834607129
-1804.500007647872,1792.5999194424194,135.84557417670663
-1831.5224872917868,2373.0835708422346,125.63311630373269
-1638.8777003359967,2657.3702538583516,68.69022551024051
-1332.9016534698396,2682.434878373349,112.43492935915937
-1124.5940254827083,2537.992076805025,151.36463522201774
-944.5141817032321,2389.5825791682178,154.56246526591653
-791.736219810027,2233.5761957447244,149.52812632244448
-641.1751209638359,2078.0082902928116,191.55369060790386
-539.7459886913473,1918.2085625570405,150.44179204927272
-477.15172867391016,1735.4652200292662,104.90024626146545
-348.0678927054601,1614.2515537925797,75.84588009157052
-250.22000377295,1493.1704506635806,34.54920895514778
-109.24933590981631,1379.676036159137,13.495944078762882
-13.401620329062423,1289.9817980655985,19.15883609591451
85.48117858799897,1200.053025243075,1.3203081582395622
142.38501425053408,1129.865958303804,-9.364410884450859
214.4565167513881,1063.3702640555136,-27.68356166478869
290.2724171862971,1019.9711420311728,-53.873952878913805
378.05774652914096,957.2881667032067,-64.1213870179929
458.40934467937575,875.4202505442736,-62.641574849719326
538.7334104918602,789.6835310733024,-61.149118200404835
611.460590517659,680.8624759729369,-51.84339198401086
653.1690230608823,583.8171037000403,-50.891282955953365
760.9876971238905,416.9028159463222,-17.31620889906339
777.411246450113,366.83169074046697,22.344939403364044
780.3653643191101,335.6813998664172,2.8711741522334338
750.110384280055,359.2348049537814,14.112362529508038
719.8819168625373,405.96533984592094,21.351225953817053
686.3169379961558,468.3036510939006,40.26125129376495
644.6911024661838,557.6460870939618,43.26095047748212
578.934702472302,639.1897334971678,18.453090504912485
532.9913884965815,740.0315092309811,5.650889957324877
525.9339325865612,948.7959700815264,-18.706795898701394
554.0464888621498,1304.1660505881216,-58.73075922970638
445.4742445177508,1892.8380231781498,-89.81527840801905
131.27928497499147,2459.565702864893,-159.22766694029053
-477.2292271060964,3229.0129656916483,-316.14873580682496
-666.5721729642642,3485.216664202353,-386.56829804265476
-827.4099718048468,3571.688599062881,-377.4948631795772
-1047.085396134256,3453.6564474106863,-356.83949156949626
-1175.9265396440173,3098.917571239924,-334.025380736541
-1176.7423126143995,2693.2132787445257,-273.79992148185164
-1089.1894785681147,2286.764593413653,-220.09656712536903
-1035.7257575216818,1984.999974507095,-171.18281982124378
-1043.2410660113292,1722.4944298001867,-111.5406382403777
-1075.861787664493,1428.7753718140243,-103.18916245608848
-1064.8080639158122,1181.4024157077085,-66.86717686467857
-1036.184629817522,964.3405240321621,-85.32924087226526
-994.2069921940725,809.4354341186848,-64.55476640850853
-952.8524011767527,681.4059847144541,-67.42802078181643
-907.9451188734176,549.4098392417392,-78.08385126419319
-855.8202852146248,405.64514895504584,-100.36577220559519
-831.18802037393,227.20194969739924,-130.791860625188
-820.7695798259344,83.93549275236703,-134.07738626340293
-803.0275374363315,-36.31474560629777,-153.0288120815977
-812.2590283124207,-117.73745366664458,-180.36434460289703
-841.767576083576,-245.60782734165082,-227.4711547776254
-870.0759178720563,-338.42035761447596,-247.20470293117427
-902.7007183900722,-458.35224057144904,-274.76151387068984
-992.7457388608751,-562.2939535927152,-295.3822151295295
-1075.2805494230956,-654.7577409207018,-323.77927222853884
-1168.1664992632552,-692.7656233270282,-328.96656860395757
-1194.923852691796,-661.6071747232746,-329.4723478455946
-1198.5030565993484,-622.8905895489286,-329.6569164801436
-1134.179357884701,-514.5630770956444,-274.11399407544883
-1101.2221298812542,-444.7533051551753,-226.7604125771798
-1075.963759285791,-327.5410053382144,-77.64221217235244
-1077.4219534703493,-180.15734221166252,-38.915021949391495
-972.9979146803446,27.676321679676548,-69.44899634431738
-870.6591955458797,313.2221502755784,-64.95469910723847
-915.3615148904062,616.1910540296636,27.544472373338504
-1111.4192920110336,1025.3144549871772,176.2875191834113
-1290.0735725247666,1446.4062651364127,380.19609142775573
-1334.9818745443145,1900.9345699091946,546.7483799258667
-1302.473321674578,2430.1978759311287,486.581044495317
-1196.4534270112629,2789.056405602321,471.25980839532366
-1131.4465184339201,2994.100941707923,526.4866187739952
-1068.519830931052,2954.3218122396543,460.84442699596707
-901.9134974736531,2786.2113973681126,412.8871734996151
-744.3449088118778,2563.7603055069776,337.50567217143475
-547.2592577485686,2306.506299296906,298.1548235126165
-437.4674328134481,2065.710512764298,292.7625641783892
-343.3364094772425,1867.4572866371293,271.2934590303519
-224.66591547572312,1696.4100890722113,285.4216271611611
-146.16714168446924,1525.260919885996,251.85358914614065
-67.31330270785641,1346.4638791024458,230.0897860125527
3.1238088439987157,1202.3167952358858,180.6111159264377
74.21514992377622,1073.7713694278882,146.78814885817278
216.45006194776,920.9750526428496,59.1683194566952
295.16501557616516,858.0065567752496,9.539720495786025
413.3960118898911,798.847720679335,-12.037443979340551
493.1755492446453,712.9743592358247,-26.251166300418596
580.6875946424111,669.5283302656871,-48.34148256540205
657.0500629674763,587.6563352419023,-50.84610952771845
734.2843886546375,513.7258900847895,-29.81670601071722
799.3861308397874,416.5703884608914,-20.664549055997718
914.2826551370754,295.78194388501686,-14.611411644139437
940.9308989308277,268.45762824206025,-18.044694161614824
934.2864280870634,284.23161834061585,9.274961378248435
923.9526239847451,342.5573462905274,32.47112928472007
886.2883859421925,447.3444040523523,35.478068453549376
751.7592653964402,658.0106356401014,111.24492053861412
696.2714076672463,832.8236451795467,141.2204983353133
658.1299424370198,1185.6444351536968,190.4789097194251
529.6273447099674,1840.944665099703,237.36342175972428
344.20316825827376,2480.4698852309402,201.03195280753368
53.07378156659003,3039.284567104975,131.99206660786305
-281.0949712694958,3466.953546827918,70.59893031769259
-632.5299669102089,3786.145115814269,-22.083688109599102
-1053.6217770594444,3889.534142648102,-79.76016274670759
-1314.9648452835577,3635.8491431834527,-122.0651292745229
-1464.9039172398323,3157.2249442980024,-126.6212213141083
-1436.8413270586798,2646.520473352266,-100.93018512947847
-1293.2142984607385,2188.97380858907,-85.4613960934672
-1083.122167100896,1827.7189458173793,-61.47257218316144
-960.6216190034314,1536.9264733624634,-23.33498187454432
-924.4278117399929,1358.3945587942878,-53.58751459468831
-925.0253654407979,1234.6621935115459,-45.32985270199304
-919.2252196213794,1118.2615878001154,-76.24724039299863
-891.1218407917078,1001.486746238522,-130.376836126506
-868.4076621476245,846.7295151759266,-109.89175712399239
-802.0965365338827,702.5385835122087,-167.28138559039022
-742.1005134271134,504.68916500537904,-173.56385717854724
-678.9321531817696,306.6388624045928,-199.42182090724154
-649.7376780042115,132.2062070125884,-210.17064950824187
-624.5873973273239,-30.660011318849968,-228.8671462731922
-664.7550386727374,-185.24776554684834,-244.64623495281268
-693.0623607450048,-297.36964202862345,-260.3906532811919
-756.3245348819424,-409.2916541326549,-284.50796143433286
-808.1087833256006,-513.5994452743802,-312.40433787277004
-850.8491686763575,-582.8748859192488,-308.8863169379962
-916.3027129549848,-632.5605583965983,-297.92538736469646
-994.2987666532406,-666.9545665441308,-318.60013358282396
-1064.1554455395064,-658.8182508807799,-335.37242585388486
-1109.8999148536964,-627.4436224398751,-328.31496994386464
-1134.6178358562813,-557.1535641630934,-277.90223980666184
-1166.9020511591625,-428.84165336786776,-235.64723937328242
-1198.0951701141573,-261.6367464934509,-169.96018008188324
-1197.0652567390498,-56.6972411577858,-182.40989532613077
-1211.3106922343513,206.32427995288916,-203.13358792248118
-1287.6874365863982,582.6943961495516,-150.6029072109232
-1521.2126465204735,1234.6927849979352,-132.7527749027446
-1802.0628858988546,1861.7264815201931,80.70380813019737
-2015.0714056278139,2445.3712531802403,260.0011216878343
-1921.8387522752423,2823.3188703583796,205.17811892950192
-1622.3073118751054,2944.3183961903405,154.31161507752395
-1357.1607021765844,2958.5230430371234,244.57791396654312
-1152.6260241774714,2845.01843137055,279.42059724778596
-933.0831629557496,2596.136295269027,330.6450214905192
-708.3958334395539,2292.4852013684595,319.336368688594
-511.47231725410825,1973.395604003406,288.04127811230137
-338.4071013037072,1685.1932107294542,228.8110618814784
-159.66206604701912,1463.068428056472,208.69002156699793
-35.1676668383189,1314.669127581794,163.96016988472113
142.0393304543346,1209.016330755151,186.59481066419218
121.84487057251968,1193.486052831497,162.79667368571327
195.41535590645125,1165.9741094053527,179.69031218611863
270.4950212355902,1133.985611804235,129.90266808747128
333.2524358471038,974.449990567625,84.28515344179716
440.3889197636298,845.9830829080269,90.24804596880689
647.6737723891442,453.1261949799371,39.733548153548874
700.5062890997436,332.7109665380125,33.08193929629385
738.8527172887785,208.78587489101784,53.69754197406862
738.4448308035875,150.75484492665692,53.887209189682515
742.1892287376423,135.25005990832753,53.99560502312207
599.8959889462764,473.4042715912162,101.74340880932839
528.4505922001907,590.2708876119776,127.75106687808784
476.926371390842,741.9098264952864,165.71408177104314
420.97454278474305,947.5009304910444,175.95611141419346
357.5053662565709,1238.1598201220602,174.02476890681325
331.98390887815924,1761.0906884614012,218.97385957488035
175.16991021398746,2420.1230797469066,226.17611518714347
-142.85510342471693,3145.222884471252,124.77553496861825
-520.6130533872424,3615.4038331132447,19.41488683699327
-938.5080532087921,3780.3837192109436,-69.81833755665798
-1174.6518943777946,3646.7601066623165,-76.82949835060903
-1278.1123013465356,3221.905543687192,-84.79511351990742
-1203.9177496902614,2676.0616520422373,-54.37004481652757
-987.7797209036726,2136.672564025432,-41.46359868048722
-842.9504468906305,1810.7406708712967,-18.57158152886052
-765.7956590680815,1628.6601438819578,22.44466764899329
-757.8143402691031,1532.1236099993373,50.362254184660415
-770.1916556622293,1474.0813631566336,38.598807951747034
-793.5288809124422,1404.6896748634856,46.33253965421424
-825.6091529727279,1323.5100671483128,26.50273029016025
-865.9409686284308,1203.6424263127572,-1.1693595672324393
-899.2469395767159,1025.6101726889408,-36.38918488984516
-863.436545609357,870.1523965880297,-82.42386543824854
-815.4639963698104,664.5521151463548,-100.63477334257878
-741.6365425502083,493.21939704180335,-157.820458566381
-681.641539159652,333.9896906690868,-172.08322923730327
-651.6282318630726,179.07032472862807,-163.26166427883123
-630.4691204437805,54.819331779965644,-193.92249137065156
-610.9272789382716,-22.498712608281117,-169.82047896070526
-646.5061973252845,-91.97055059576921,-181.89391892236392
-693.6476778512541,-122.73406311023645,-202.11897029056817
-756.0104622883453,-203.5353561103945,-206.7046341003299
-828.8151407463305,-280.1048268266942,-180.06454803628154
-883.3352877894082,-341.6222665232266,-184.5982063191814
-948.8979417028243,-368.16344011461615,-181.566590017998
-981.1434077896122,-395.3144040013665,-217.27909122891103
-1004.6172750123641,-426.1200307954297,-221.4517699724167
-990.2933213686633,-465.1313139553263,-244.65337296630352
-971.3806447665615,-476.9549234448054,-252.1798983342936
-968.5458336944829,-441.4861344087941,-177.68860926004294
-979.3792987411605,-390.0139191263072,-56.36165255209475
-1028.9956305160274,-276.51440604079886,44.55242106121867
-1089.8115054580312,-59.561012170313006,23.286545354427865
-1058.2206971799749,280.2384096505943,-24.482162614144485
-1151.953011476906,652.3797627120373,-27.141582497590925
-1264.5398785517991,991.0101818663866,99.54204544875162
-1375.6073684693552,1237.333849989548,289.353652878404
-1442.745483931822,1559.9618626136348,397.1488734685137
-1400.8147532541695,1908.0929777242995,424.07549978840893
-1310.5800655677526,2232.209776019334,404.71006918774515
-1187.9897824435461,2483.0905558982936,444.94603151942823
-1067.5816920151124,2559.650849168677,458.2655646933459
-949.3221436474231,2504.3618361010135,436.6761330321772
-835.3250090499814,2429.6880178246397,407.23794567971737
-730.1800308974014,2269.82710711609,362.25724380904796
-644.5187704261905,2079.160569613477,317.0878944389777
-540.1620329062423,1826.4239062268973,268.4841408635977
-463.434506176931,1635.5126368331696,187.86027848449777
-384.062855307368,1472.2968597839224,177.825251232582
-328.03148883665676,1336.2361254862772,155.57606318161658
-268.6370982955444,1246.3685356365324,109.67353785441514
-226.49324692937958,1172.6022647897091,118.40332835371917
-166.11890910759539,1144.7742093375416,88.00436438539155
-127.85711736423754,1144.4071115008694,80.72950497876442
-58.739834704001886,1128.3669754707266,77.89428602020058
9.096194928951274,1084.967853446386,43.735220488138154
86.19416416411315,1011.001718221819,60.838104755446565
187.95001351123983,878.3203234539828,23.563704221115266
285.3604441883824,733.9590991826975,-25.510240500068836
369.24026043552084,605.635971509129,-23.8208766500283
475.3121606256979,500.07392942544095,-53.272932142984615
582.5557147445867,425.7009274318957,-55.34020282155477
666.4059592215488,351.4380547893522,-65.60752142678693
735.9322500548099,335.49581151565525,-56.66308066465104
785.590390194409,350.44689063033763,-71.66820473862126
824.9687711909777,431.46130431900804,-63.5024192767153
796.1291572555359,578.9499982154966,-36.95961413938501
747.5590543151842,680.1293000158057,-14.480684025635666
705.9321990689992,769.4707162996539,-11.480984841918495
611.2433909642947,1146.2324035221,68.2466489575951
478.5630159126716,1619.9721617473858,143.15388027511946
239.65778323892462,2113.2700769375883,149.6841429030301
-40.48273365522376,2610.0656187383056,77.09380879301291
-310.1517847583018,3009.93713449547,-6.786976184527847
-569.6195948667487,3235.6003324274857,-93.85182503709218
-807.2246893689487,3210.7396511550837,-54.156312298287396
-946.9635400468052,3054.213212462972,58.0926208236248
-1099.1317116446494,2928.451611916404,138.65489234346083
-1176.3650176155977,2770.6709222823292,165.50198079874372
-1138.4825603034676,2542.3564621965706,194.31202296400915
-1097.530757190274,2336.985616902816,195.61827943283387
-1152.0753774224634,2097.821376310973,227.0051444682945
-1205.4167325233389,1869.5375077116041,179.8809991179455
-1255.219672365181,1633.4222185965648,124.98661622470468
-1261.8274334252778,1397.194760698098,94.28785568976156
-1253.7512810184926,1152.931939041365,44.21275359067572
-1172.6532506003582,900.3278387624725,-8.664946745320778
-1095.2363957110738,709.5878816925251,-69.65589676393061
-1047.2179592419432,531.0345530838769,-91.88183528524013
-975.2229354570625,394.99523282670435,-98.19377667195221
-927.0342063803646,258.96407029923574,-124.48491584791954
-861.7417772633876,169.57982593444248,-111.43152860558908
-824.7862419888546,80.06230466061297,-138.04918091295193
-807.1267966125029,6.134113076330858,-168.93230613920147
-797.5832725752424,-67.83713092646317,-211.71042098983852
-768.5264590864364,-145.75721576685208,-246.33386528529113
-762.8894678610943,-246.74583063533422,-285.15446151336084
-753.2358144728323,-343.86054361071314,-320.00428280809456
-791.550631459265,-447.7798228752938,-292.7554261648984
-838.5809629180201,-520.9964666833221,-301.06203443581654
-860.4202250513682,-532.0818016346051,-262.10581595142077
-899.3091422657076,-524.1494292138499,-274.48822992561173
-910.325136514508,-485.30537951288164,-266.9351919360842
-875.1816369504368,-419.8049282884574,-266.6302967884038
-856.5238894015797,-365.0431085029037,-184.11791998286878
-853.1710624933082,-313.9971345974416,-97.8983648850525
-880.8910280269002,-258.9130844885869,-20.007036041869547
-914.4019619339938,-150.21847419863053,-9.101823762446912
-944.060407988457,54.99370325238487,-18.087624214181197
-1029.1485879479742,268.9705454971882,38.7853140471007
-1097.948840837595,490.77207813065627,119.42304456669711
-1221.446671391352,787.1750291893767,273.55824873937587
-1393.8093028710111,1156.6539032187343,336.4492461747896
-1485.9202683893075,1525.3323000209043,380.921109655183
-1454.5130090295872,1943.324172882687,423.151636899451
-1401.1818510908415,2229.538119541332,458.30635334186496
-1370.8554909168781,2434.8477818623082,513.0131084519179
-1320.6038759413257,2515.59910876803,501.7197513931873
-1207.3134046794778,2456.200639362066,448.67207456164954
-1044.6890630337577,2288.080027328395,396.73078982119284
-932.73747915955,2077.7329669153078,336.3228013643803
-832.6156230720991,1848.0928757526783,271.87877613660123
-720.171516267023,1649.4521574645778,223.21383958844257
-606.8545323836377,1478.0582563872476,194.0917642620059
-514.9413918106592,1338.1735862909354,207.715172867391
-461.2370177379635,1264.3257381470737,216.61729540668833
-416.1665808405521,1213.4622934437348,193.9163730733737
-350.79563357517605,1251.5486939984605,182.99317299995414
-290.3947831318544,1285.5154410527552,140.61274747237846
-90.04216526540665,1260.7873228880405,147.62227672038875
178.979569985673,898.3679442011289,94.00488444066018
273.92840572468685,738.9383734506688,88.11571739584875
458.7988762727333,485.4664946745321,28.946072308076666
534.5331994106041,411.1597742348305,6.783447966430943
733.0352362937396,239.21726583491818,-9.286229242401841
748.7490631357294,262.34544926147055,-5.204254256040545
688.9457663932128,332.80070156475455,32.908485568466304
673.3950941452994,371.5040304283318,20.77110940025391
608.456506554226,511.1816981334095,7.55331331290502
555.1059740074338,616.0197417058832,2.4758811622725396
515.3309234040167,833.269261164618,32.54414096556929
455.2675990271908,1240.6377305195965,104.83804357247381
239.28048824012282,1866.01948677683,189.75899007306268
-68.90813886495388,2487.322378182152,171.27255484798584
-360.8806269215278,2964.814692071197,94.64547016565291
-568.5111633432416,3283.2210795735555,39.4411955152881
-733.520621211117,3357.048533393157,-69.24433930037272
-834.9089648350864,3264.835596253563,-86.15041833857639
-982.4547628395018,3088.0371992474497,-83.83953745672581
-1069.6109272789383,2950.069595631536,-14.036393671641184
-1108.2479745886722,2799.72263719007,13.36440068728873
-1101.4158759617198,2598.624402828693,29.843728490361137
-1113.3465556535618,2409.3854680242493,57.775591053009954
-1176.446594912636,2204.820198538747,57.520560028144175
-1217.0211030270277,1972.8959430590469,45.92139007714154
-1224.2202994906518,1670.8560007749845,11.510862526958748
-1212.3202112851995,1326.140934977796,-18.5448649640805
-1158.570969699133,1019.591807599945,-71.65035970489414
-1107.513778915328,763.5655397102987,-101.4187311671162
-1059.6992856887928,554.0628043215575,-123.5437177833409
-987.6828478634397,402.5829411674731,-125.87886791106037
-916.0192318477768,278.04703950890473,-144.00840246159495
-862.8604059490244,204.05643109522623,-150.8109293183707
-825.3868548382985,110.80644256703361,-161.70965620267881
-830.4935936328922,29.422381751158653,-181.13423034369535
-846.6968842571114,-24.723325498513766,-192.96803699530423
-828.4378457475286,-71.4678305027711,-212.1601158397618
-813.0227957559412,-129.51517592653965,-199.95921135148092
-817.1475478374368,-168.17261756053293,-199.89089036521136
-856.1731070243153,-198.89360790891897,-208.22095210902808
-905.6946051913754,-213.81001667236012,-189.28890089887986
-937.775896967874,-256.36787282099397,-217.09860145921394
-981.2270245190765,-310.37306317651803,-237.19007000351803
-983.4612227417111,-376.5862960338138,-288.02088378804183
-999.2280748267758,-465.37910499507996,-280.1078859753331
-1003.0795429631935,-561.8972839858668,-260.21730152498566
-989.1196280075255,-549.7983511188837,-193.3300362509114
-993.7185481280562,-494.89275134730013,-115.09230981017984
-988.4772067933495,-355.54547169522726,-103.70921772470722
-949.7555230379386,-193.59618218249864,-131.1487612997303
-883.2934794246763,-116.62494327828566,-118.63888279891708
-866.9341722198714,-73.02983179781067,10.971942508399913
-931.308856745168,56.19972161747387,127.31054947408138
-1068.387267823365,394.6668842061255,214.38105775162774
-1280.161930934621,896.5222578556389,335.1042404898717
-1497.218724029103,1549.6627288625577,494.483845145896
-1656.0395242004154,2264.2492594311007,654.5272850565689
-1688.6704430157088,2737.183441848134,727.0117726236789
-1660.5058812132584,2965.13080409722,714.8904060000102
-1587.7491294172833,3033.96164847323,688.2758128412863
-1523.0175442174445,2935.7119913528068,575.7623653337278
-1280.6208032304612,2701.0345020980662,505.61710675918897
-1033.8800711761917,2420.112882584777,459.24143310916577
-817.1424492563721,2120.316315969266,439.9514615082623
-633.2080781918393,1875.3294958013187,463.15612365078806
-496.606894301316,1688.3543309896856,442.2855919197688
-356.7517959751802,1532.093018512948,397.8116890069494
-247.2363141337766,1445.702660949458,352.64845793415697
-175.38303090249985,1367.5618075489592,330.4400585317107
-107.90025136004652,1293.1837069743492,292.4556295982828
-36.61923286749298,1211.0251716947175,254.55481739431917
134.59132323474378,968.7049094237076,132.34896728240534
202.15568007423536,847.9990618610841,106.29623775703223
288.9059974609067,754.1576379293643,72.59023213839589
387.7328139578756,695.1130100493033,46.79742827571088
459.75027149944174,620.8715514472323,28.503515471644246
699.7139696022597,413.6121917270424,-6.4490524287090905
736.6960174983303,347.2725140593373,-37.06831588768846
748.0107885975334,312.3645689404639,-36.780959858871284
721.8000030591487,324.35031330780646,-17.590920446839647
703.6225418466041,402.0108803719925,-2.4267512351312632
545.3605461600038,783.6223379033615,131.2772455425655
506.676591904473,981.8357950982243,196.74710528060044
465.39134158963566,1338.7344302080733,265.5677524944808
301.6646867176865,1858.9936420694123,324.1545277949147
51.60630796449349,2391.1121534876847,334.31192099238785
-283.8451458958972,2868.6656503495083,225.63668531047813
-558.8932000224339,3187.092432176126,114.47742093375416
-833.2549851376364,3351.205559492794,54.86929787440156
-1121.198370493492,3369.1525648412053,77.96790953077759
-1369.193353489724,3279.030045938216,164.82386951711342
-1484.8495663656806,3040.4674379120297,210.9915210596891
-1409.4619467402224,2587.611467728532,256.8196071033432
-1234.9783055375692,2230.251920890417,252.78866891344143
-1129.1725512789792,1970.1427092840065,247.402527876492
-1128.071257768963,1733.843871250631,216.81919921685795
-1156.5927202459557,1532.8476085105517,213.1451617014985
-1191.4262260812816,1292.643257381471,146.71472929083836
-1144.101196636976,1129.3561001973153,100.87930129045087
-1127.3472592577486,985.6933815319197,58.444218973859584
-1122.66676184018,845.8464409354877,0.11685233999377975
-1082.2044225092159,706.0056186363336,-26.277780893577322
-1008.6533117833309,553.9149454706755,-95.30604232842002
-899.517164373155,374.7487674180276,-132.31327721495109
-816.2930256509615,269.43349665788014,-154.2585898344491
-779.1468034446015,168.37758051934148,-172.98465836957575
-777.1175681807754,44.309626630908625,-200.00815772970387
-798.5927916260906,-37.19516858458291,-247.15065797188643
-827.1468850218985,-126.20721653163926,-274.7502969923471
-840.4511224526216,-180.62233280478046,-314.0124303406363
-883.9828075846493,-265.5432793053693,-330.07601984367756
-900.2411628843694,-327.4267971223609,-341.88433358996195
-936.2565198105368,-420.17916413862025,-361.7341293917903
-1004.1900139191264,-532.276567431284,-409.46908475371316
-1043.434812091795,-574.6376183508131,-421.68834413382757
-1052.1737800370158,-586.4234983404119,-449.251273370621
-1016.1859554485987,-555.467973263041,-417.41981206630203
-969.3442714892446,-547.9506253409677,-401.0452091183024
-916.2782397658733,-493.5253119056967,-325.8656116002917
-907.2180612135644,-411.1495770727007,-192.5713673884558
-920.4876282930461,-312.94886633050027,-40.04099259176172
-958.8891211575819,-177.4510153824191,-64.62104796235208
-927.4390337169167,65.76700504249668,-96.36736296288744
-992.7447191446622,372.4105581416692,-43.43542392152265
-1198.4724651129593,792.6906741853743,46.255958966619595
-1402.874580004385,1209.4446115646017,175.22599460570126
-1617.8205605380024,1692.1884639504826,319.5127795934392
-1712.2870705082776,2196.448328430198,379.19065124175944
-1656.7737198737593,2671.442337597447,327.39926478461047
-1527.4635069060282,2937.4659032391287,336.2881310131391
-1368.8364528151817,2947.989374557061,354.32691082071864
-1134.5668500456325,2853.288329857801,354.2310574966987
-892.4515507334311,2700.636812775005,370.1467881488582
-724.1208771598865,2428.6886959359213,393.208690021567
-570.022382770875,2125.2619396022087,345.52064160544126
-461.75503357415636,1783.6774025788627,316.8982272233638
-353.8721173897305,1542.4125465882846,256.53408656370937
-280.6167243656091,1347.7589186929279,187.64511836355945
-205.45344230700601,1192.2114075652746,165.7477324060714
-131.38125659628926,1075.0052260455916,104.45870914124599
-67.09773470043288,958.337454686361,94.04118633784219
-21.919411827688357,942.2667271698288,67.29974048222381
58.64857010294036,949.276256417839,56.70906986585634
139.02504932877181,967.8238746156946,38.22742730698047
207.76004038076206,974.8548179041774,19.610162491778542
307.15993738942456,939.1260012338568,5.521110674899176
393.5013485746917,825.8722397556761,-35.974364334405735
457.43041711491696,716.8370442505851,-58.196631877348544
514.0083514757844,600.2263769992812,-68.72958655606146
574.7926152151857,495.26086890018513,-71.38961826923568
638.8848383494874,448.05616596901086,-101.66733797984023
692.1527738830284,389.54077080348543,-108.52125853375007
707.7024264147288,370.14576843264524,-100.37362402043513
726.6966803138687,389.238934804444,-111.92711068509637
735.6854787312692,416.5336786772242,-80.48783223628865
751.4798631540843,470.5765985326284,-80.43358333375824
752.187546205891,513.2354065863472,-68.79301290450869
723.3764843244126,606.6648651680238,-30.293627283526995
662.5922205850113,692.3210270581698,-23.64385391545533
591.4731330270787,797.6842244803272,14.181601260369241
546.4822339942795,995.3113448527275,8.916398566279007
384.8755691291114,1836.6516598430658,62.526754804138015
117.87817450403554,2326.013470451174,37.25329240872266
-209.01938990378983,2711.03791814738,-27.81153604951742
-476.0606323260238,3033.3396215833136,-131.0141587596172
-743.0712832618683,3224.3426654362097,-206.30184619620363
-979.6056757404416,3248.9586148174967,-257.0225306297258
-1097.3472082719381,3165.3520825154365,-191.7861859044628
-1177.2827622072778,2976.9901036541532,-125.62903743888077
-1145.8449113611684,2772.2310880881855,-65.59844595249143
-1088.3431141113429,2536.1259961352757,-24.694365558065194
-1069.5599414682895,2331.173234488842,3.750699780251157
-1074.6381282089196,2137.8044490218376,8.251625172714435
-1099.2540775902066,1944.517240851871,4.61034094211581
-1100.2635966410548,1762.7528258885554,13.057670050424969
-1060.484467172786,1526.1888616398057,-13.020756323515167
-1032.8399606389544,1285.7193842953507,-54.96637485787706
-985.222272641524,1010.5153135882285,-69.0230608821565
-960.180081883212,774.2460473250295,-75.70016264473598
-884.3876349212014,572.5115100467541,-69.95967022377673
-812.8055962025769,417.0608719593338,-84.0615296762911
-767.7066072512021,292.8359837457236,-90.8161298710569
-706.8132338770121,203.3446691785676,-93.52673950839483
-672.9494781602281,164.25282843784578,-108.58652037138066
-669.3682348202497,144.84558947244983,-112.39210127821428
-692.9246990562527,121.74289895122187,-120.51618034700944
-721.4532995467363,113.838058868217,-164.08763441134334
-760.2871520855747,71.57959139971346,-164.52611238292386
-822.4592495908389,17.859309754095435,-169.20151121942766
-893.6476778512541,-47.71537681063361,-209.29267384886788
-920.3203948341177,-101.49826903172848,-189.88747431589792
-966.8327104566799,-178.44727812249855,-182.47515716376134
-984.3177843606126,-240.6377305195964,-229.62275598700884
-1008.2005577847685,-329.4743872780206,-233.60576751490063
-1005.7634360357514,-395.51222894668416,-260.8189340906426
-1002.3453472898494,-457.44163399325976,-260.55890645633326
-959.4387481963771,-480.80945072986196,-240.2135285749976
-950.2307107931864,-519.1120311217388,-188.9269016432727
-953.1389414325994,-475.3682450174117,-59.605267853956256
-969.8174198120664,-397.3314026706368,-1.249019797790275
-938.7752188565922,-212.14482009656712,-32.80569817419813
-868.6809460927026,-30.98693233673069,-48.06544538654892
-881.3988467009633,159.0410588733156,-9.650767591379319
-948.7572208654333,431.4092987921462,102.23572779695412
-1056.191461916149,839.8525490356036,252.3083825771288
-1213.5744622271623,1325.9573860594599,389.5978749114122
-1362.6059867538866,1866.223430019426,534.677999112847
-1384.6012654678204,2362.0094527692945,575.8470017794049
-1273.6357471715623,2759.7191701549464,584.016968077784
-1141.6436805636993,2955.9125695319,573.5577388812694
-1047.778803159081,2912.064772373849,512.317661994667
-977.5917362198102,2791.0244578933684,450.98377121647053
-829.9765975129123,2623.128183426553,410.5907725879888
-686.2669719017199,2408.9062014041497,378.1444224072441
-530.8071563683827,2163.756226642126,357.7521375801115
-378.16277729907773,1911.1623235253633,368.73957977494865
-268.3984847017075,1685.8152376193707,359.3704272101075
-165.82421112204474,1495.4138263321317,357.62467305348923
-64.80102787394269,1181.0353178710368,336.6511499849592
-5.406035700264617,1033.2376499620157,302.7170338494797
39.14690541622267,928.1875054172426,276.26661500104524
158.23446334885003,733.0811235233235,196.29231184961228
195.67946240561255,674.5820438172058,177.42654219330763
240.72236696527358,639.1662800242693,150.74872662937906
406.8718675592583,328.05188316091636,118.96519198707001
452.32367832032355,254.12041828759058,112.04641748201477
484.407009529248,238.74921609316132,151.82554695028375
503.42777604992534,281.0195122697354,136.2687564050925
554.2014857265224,415.9697756114474,128.72489586148177
502.0511591624052,478.6282777503022,166.97852987513576
426.8613644822646,610.999678789393,192.87830196856217
383.09820376989086,770.3160610402126,230.93105188825953
246.18702615062233,1016.1380287865887,341.8649589819154
-153.7864612278403,1362.2694804036037,621.2039789326631
288.9274115013792,1620.3494567461878,450.35664574548906
566.3146946204872,1996.6553308214327,374.7497871342406
430.0704114045062,2460.779165158337,237.7060464072849
-158.70047365818095,2948.274895096695,152.6749705556944
-835.1384009830065,3412.531292541286,-12.084350925137535
-1444.5299873045333,3629.4963111766,-80.8137335379564
-1598.252206410956,3336.287111296926,-121.37376168212387
-1431.0595361310948,2843.9273350226636,-85.81105678289734
-1197.0856510633091,2455.649992607058,-33.900975358557716
-1086.6911738463189,2164.8065343414933,-11.643119719781986
-1090.9433904544367,1933.01484196948,24.396608423875637
-1130.4573937073314,1716.8044133317699,40.23269923980157
-1116.7014219942591,1538.6192022760067,29.265957284087843
-1082.3165912926434,1399.2545874483133,49.87431997675048
-1039.4885103475704,1243.5643160508432,-15.677422973186562
-1006.5720709926429,1049.7570526122581,-26.304497458357343
-982.401737596427,824.8545629751242,-60.505269383530575
-904.1211830747504,661.3675414132248,-101.95204274650366
-843.9344730361541,509.9080725834001,-112.31358312981499
-799.7358935008389,373.87283119107957,-142.58895749312967
-801.3694788740294,238.2964620945991,-161.78001662137427
-751.5441052755019,121.98457169369767,-144.94246251268274
-755.8330316672871,40.805269893388676,-140.8085329852702
-787.204600959553,-17.021816828376664,-145.0077243503133
-833.5537619880388,-70.75841393340235,-137.67086619793713
-896.4080496397854,-143.959456083372,-157.98871174152234
-947.1001820193441,-247.9939632800192,-154.47273023917447
-965.4306006638353,-333.56752815691397,-221.17746631112564
-977.9700509348249,-434.1339805132232,-228.875304002896
-982.9952124323801,-503.9121412510899,-248.33760764379278
-981.3218581268835,-581.7266854634356,-295.1456409681186
-970.0060673114674,-635.943976791259,-290.8689511708892
-951.0658583716153,-624.5894367597499,-302.3968429586047
-926.7731590298421,-593.578847006878,-274.6656605466699
-934.681058261486,-519.1966675674161,-184.76849892674872
-941.6895677932831,-394.38442281513056,-79.33004644807352
-992.9955693330546,-269.7241157785789,-29.499064410374597
-942.1688344133829,-49.799370835096596,-53.02738447889952
-845.5384866391685,243.03508333630754,-103.58787149536285
-860.9953449954878,611.0200731136525,-69.7392075785309
-995.1288156506046,1058.363457449792,79.80268491278878
-1174.2745993789931,1525.6688063711872,260.0001019716213
-1376.678070492982,1949.6566105652798,334.03047931760597
-1398.1634911004269,2297.8081200002043,308.986249126868
-1290.4916561720875,2420.5003747457085,278.78837319573967
-1167.6974298052853,2500.5175059780863,248.96065424992224
-1096.5824211122047,2549.6372359572333,179.21716386329686
-980.1807956845611,2559.5284832231196,90.66082709182035
-799.9663493649718,2507.7065052795806,77.83667205416734
-477.49843218632265,2292.4953985305892,91.24216730483907
-373.64237532694654,2110.1293510016167,124.81020531985949
-256.77168044133316,1896.152100870328,95.88554705225538
-195.52038667638797,1683.1741726277578,128.91864194194756
-133.0331968613135,1427.0214599277024,95.39700101461764
-69.9747620237288,1213.5030820922539,69.58951323846574
-33.918004619314445,1034.9303788755592,35.41046126862894
29.303176925861536,883.2373950329625,1.547613099274472
104.05694095333271,746.8952190605355,-36.11885812178471
196.18728107967556,676.5776284460036,-30.577006419113566
271.8114748665447,644.7257728174251,-64.65836957574709
353.79767810618307,640.5051674119093,-32.01908908750695
423.21485930465553,647.7074230241725,-31.003553711002233
484.02461594938137,623.8481030729149,-49.635298496428454
618.9259329128704,491.50933295263934,-19.695818653668685
661.5612874936907,410.14413688670453,4.7650216944624315
714.5844911361169,316.8095119128347,-1.9751189244033387
768.9975679768321,266.30500731646384,22.558060091876435
811.1679319645343,235.02725191579185,23.29521294223818
838.3056395405159,258.03204968057395,23.62407142092356
786.6172444208778,405.7675149006032,57.67310957360567
719.5443907960416,480.25370539378895,107.43730019935454
647.1170073368583,593.0118847924623,105.97196800130526
621.856597308969,779.0213783504051,116.74017121035217
467.08101135454007,1786.134918652139,111.02364212039791
212.5955346627034,2410.823267884548,85.48148450286287
-124.74800263086784,2954.556346968639,19.724778594117257
-475.6394895300639,3351.1137850336254,-73.21072945399297
-974.0523012445638,3748.537981879643,-199.7562878250983
-1448.8229925611704,3891.033125481179,-258.3685560308566
-1672.9668133358487,3587.5043975261688,-217.53096113351654
-1577.6335445845423,3076.738743607654,-139.81227024519077
-1363.4319568863987,2557.1729387711403,-75.9815023478966
-1163.9754656279158,2095.832929695666,-4.718838747176661
-1083.071181290247,1782.3823629883805,60.34435816512265
-1072.1296263249938,1538.843539842862,92.72677213931364
-1103.72043460305,1334.2068902224512,112.56749246684649
-1125.2772353454034,1144.5498717706864,85.41163394227387
-1093.1255831502094,977.5856179225324,47.21031137034564
-1050.2363192323578,810.3266660888276,-14.376978886775813
-1029.4035170012187,658.9599914343838,-48.87581386100249
-977.4428576527154,511.2918274844111,-75.07171154267769
-909.9039937185481,328.78913798289943,-89.14277556556011
-888.1707820713497,189.23485593959205,-100.1203265131314
-859.5218550677347,53.2832312767357,-134.5546134510766
-884.2489535162365,-58.93643598986402,-158.09374251145908
-897.4430615959579,-175.11382582227367,-181.4472832210796
-907.2751653214912,-283.7207405179139,-220.4738621241709
-910.2986238929707,-423.5075178577803,-278.9168574385749
-932.2357787827649,-570.7810516333305,-325.8441975598191
-946.8472923985255,-733.6572631836561,-380.45815849449104
-956.3520672196929,-834.4582502689502,-411.6573957467637
-984.0067709156543,-873.0392131869702,-423.7155399652278
-980.0992183875229,-865.332198049283,-423.6829090464124
-960.3687293826129,-819.0217862368904,-419.6193399376954
-927.4971575410564,-760.8184242325361,-372.22802893954616
-893.7812606751543,-679.2319497483851,-305.2795806926933
-901.3883436239696,-600.9126460106154,-207.54182111118476
-929.3000158056014,-514.9811607429652,-141.53151178027156
-855.4052607159429,-380.2103674547374,-148.7286688114698
-797.6464949804471,-51.40899287728226,-105.80167539373794
-973.7310906374756,400.22739671549414,54.871031391963626
-1367.4088501170127,965.0736999892931,137.3343598476544
-1723.7690750664092,1653.8981201531617,270.9600118287081
-1988.354840847792,2376.581197452749,378.3718191227382
-1904.4423936818387,2801.5173377249116,378.195408217893
-1527.6470558243643,2968.3123186817115,324.4074174157333
-1336.154548189239,2954.9438391295707,295.92470415483376
-1238.62888958003,2864.6785599567643,238.82059622806975
-1028.2104490320344,2742.9448384514594,222.7600658736674
-778.9918065802289,2601.6631571433672,219.11967899333615
-590.9846889610623,2348.9774795674366,250.26079242146912
-469.68638627869865,2081.047044607486,249.05752729015515
-348.79698979773934,1813.0146380262374,236.07348075030723
-274.8869389648861,1595.3664095282286,190.81949493455974
-182.2548984617581,1396.7358884022578,126.1592898696293
-83.69800084636447,1221.7627834173752,116.45159152207941
-31.600087695594322,1035.5116171169564,102.16128851340673
32.81997420117981,938.186842601704,91.68115513452608
66.54780174677389,879.7509853007908,76.68510653485136
165.83746743281347,886.4749940091674,50.6773464944706
238.37192109435946,885.7387589033973,32.14318855062637
361.35785410920147,741.8149928874795,54.09400763767444
414.5717446834546,656.2526448889275,51.25511770074389
719.2833434455191,320.85370641350517,21.629302565096136
727.9988579178416,328.77078309106577,49.20548811265825
703.4226774688606,399.0955117190886,103.54504341441779
669.5038570765757,469.0684382536341,110.65042598644798
624.4058878414138,573.9839802582942,121.39415600638343
563.1291011711442,705.8597992178777,104.33328404704973
525.7299893439656,1216.2155272187752,31.408075132690577
24.021250885878462,2809.124420673727,-103.14429494271747
-291.1728266023566,3285.7805672681293,-293.9301392422489
-580.2633926978123,3619.1156001284844,-479.9182187597192
-738.3296028715209,3681.114345877543,-608.0822707040631
-810.9140226275028,3500.328858478686,-553.61514890406
-859.8308290802671,3242.2692764603617,-467.1360760300409
-927.7153768106338,2988.2885592939488,-373.1049848827072
-949.7147343894196,2799.508496785345,-302.1541504999159
-984.3361392524463,2575.8031539822473,-254.82300275833236
-1034.5938725252763,2359.888443046301,-215.60063834234938
-1054.9983939469646,2120.306118807136,-199.400406866769
-1087.0174830344718,1853.7726950589654,-179.3578847006878
-1092.4219789632546,1594.6730025034035,-170.7147700794869
-1109.685774448971,1254.475279529707,-154.12704644297494
-1097.2860252991593,960.0974848699609,-180.4214487108238
-1065.8787659394393,688.6765613129867,-218.28147226626834
-1026.0180591741318,444.41475937246673,-240.40727465546343
-970.4496438641127,261.8988135601862,-266.4324718430861
-898.6769182136612,114.21943273187073,-276.6326931215043
-865.9827769931629,-52.60889294509338,-299.1276327797974
-865.7543605614559,-142.3717579397654,-385.1631291011712
-914.3397592450021,-223.70228365445902,-436.636364099871
-979.0203586341923,-305.08481489601445,-507.97367092738097
-1085.8957952001958,-378.36875997409925,-576.0468661571485
-1219.7539424778086,-509.3727215715867,-632.5544400993205
-1345.3523884303002,-640.2991847368878,-673.2400972809268
-1428.4490626258714,-736.7684173494517,-717.3305868976664
-1455.6143025396034,-802.2607108441722,-709.6663998409244
-1431.977280722775,-844.7900149388427,-685.6214915389048
-1407.7080348539002,-817.6472087817962,-657.8770528162014
-1354.4482570500631,-813.3786767142705,-566.827611875615
-1261.4297441022165,-751.171908857765,-451.8301356732422
-1121.657242789332,-673.7448568063509,-324.40945684815915
-1027.9249284924008,-549.5689149709636,-201.7610498998129
-959.6957166820475,-317.6783101262919,-170.12435439217268
-1076.1677025283864,171.58866687400896,-75.40454691459367
-1429.1832582992154,627.5435546287468,-19.4365048207084
-1660.118389052327,1087.09906033151,112.91521569547197
-1741.9710094680652,1669.7547072649684,298.10587713439355
-1783.34089622858,2188.831048319253,331.05596712434937
-1596.7022377672297,2658.9814054748567,285.1707769727685
-1367.439441603402,2966.650181254557,279.71733466576256
-1267.3746896238777,3148.353413245094,351.2463481413123
-1105.474346489372,3154.838808359634,353.6498192553013
-897.766311635472,3079.767300760199,360.9387507456675
-729.4652098321038,2900.490993356549,364.0652006546579
-651.1540638240378,2605.71143050889,350.53356650844074
-577.5703221793376,2341.625325671866,305.431518408427
-478.1847011976568,2084.7690087848555,225.3695196626779
-385.2518444117003,1832.1547113438335,180.5183217510567
-298.90839379400717,1622.3481005236245,158.97171817083307
-245.692463787328,1420.933754136224,180.07168604977238
-126.63141847623808,1202.643104424039,104.0987493180648
-57.64975807232848,1167.2589518337047,101.32716065119078
304.7411705322409,1071.8135142989706,130.62462716625964
357.0281390688972,970.574049242096,104.27719965533593
428.25531654540544,861.3767188591415,70.39121412510899
540.2915368652905,604.7029311742543,21.915230991215147
584.7909326834343,491.91416028919156,-4.51003145824517
638.3586647835908,398.71617728786083,4.45601709044373
683.810475544656,344.0940586234851,-6.452743801400071
734.1253129254129,297.4196081230594,10.156852747880267
730.2993376943198,282.00863699632396,14.076162603947322
727.1545328934959,305.3876706112689,29.64865677881846
684.7649299200034,363.643038142485,17.0433328404705
612.9656916480144,430.216230822962,43.215573106004605
543.7381776651558,527.3329832307669,26.15255974262363
441.4331091657192,872.2815640407275,3.8332763991781094
171.67942161696402,1911.3458724436991,8.061172775616548
-195.40209959568253,2532.8221156052273,-42.70479725492396
-542.6603376280382,3052.877384223971,-167.39967267109566
-801.9150270479726,3483.279203397695,-290.47330128025374
-987.8949488357391,3727.7561654591536,-372.5767718843846
-1202.13324631755,3698.908393794007,-324.66846476625557
-1413.0615449720344,3534.744280666691,-264.47971529523335
-1533.1943120229644,3207.23182738244,-218.07854873988572
-1451.0255795812027,2700.0147858850887,-187.66449297160602
-1364.2681241810405,2316.5301096704793,-161.5240678519168
-1314.3326212315114,2003.2936833679191,-100.84972952027452
-1321.7357609377311,1775.5706586856882,-45.24776554684831
-1358.0478552818752,1543.7177833408964,-45.009457867875376
-1409.798453090505,1308.112352332346,-44.9898793165862
-1403.884099055233,1110.6443076891703,-56.00903468564699
-1393.2790504402626,955.843228829417,-51.403282466489586
-1390.8725201776347,789.3898528039648,-58.65489234346083
-1353.8262301601467,634.241050715586,-69.35049175814372
-1285.5868211876636,475.0878230588428,-67.79134566850047
-1185.185562857857,264.82641880764584,-128.3720740517914
-1105.657895407708,105.51513513789115,-134.49241076208494
-1014.4493787378973,-38.41005848072482,-140.4903815268211
-961.8065292429118,-166.59715601148204,-151.04342461492968
-924.3339978483989,-279.15649074862466,-157.95098224164218
-886.9430437509242,-364.70252328776905,-172.80110945123974
-880.5708371360251,-438.4728729994443,-196.0047518775525
-889.4760188239615,-512.0902652791729,-215.51294274803323
-936.7521018900442,-600.8167926865955,-227.69549234448056
-968.6957319777907,-681.9586709018881,-243.59898640208434
-977.6824909627652,-767.1814534015184,-263.0684280564719
-978.7450352566882,-802.2056461686714,-286.51374322526044
-972.2922710609638,-806.4415473173816,-321.72454405938834
-971.175681807753,-782.9901138513153,-294.3145722545416
-954.2902010370515,-728.67289033462,-262.84816935446867
-950.3928456710498,-600.2528896208186,-176.88099401936444
-1009.4701044699262,-381.86740630082653,-37.21678656829805
-1070.508277546359,-94.45988181489093,31.542473729561067
-1085.1208108783328,311.3621879031066,-28.914665048716945
-1224.9239036776066,668.4535493772084,-24.36418144830294
-1317.2796010870177,925.0814498325117,36.180550952669876
-1407.5652745840835,1166.7796852136053,159.60088307424047
-1601.4133266711876,1556.1583211392272,265.2730545089302
-1621.3997644455549,1943.3139757205574,275.4406448685331
-1537.3751484961736,2209.9391739278963,311.12153487684384
-1453.6564474106858,2434.0014174055364,346.9421260063325
-1389.6284663978015,2538.389766128087,394.64445044944
-1300.8315785716836,2580.2287223465714,391.90855185002016
-1185.7973925856436,2575.3340845242774,377.94965661056534
-1068.5504224174413,2512.0708906711266,328.89926733390104
-914.8761299730286,2406.4894739793917,339.4064231924256
-793.306582778013,2235.1771501990997,326.10728434276746
-672.8281319308837,2024.9728500558297,289.3740472026635
-493.77208322923735,1647.453513687141,199.13935951624666
-414.53605461600046,1484.2071451515044,185.17842484436582
-366.184170945226,1371.3857433476267,158.81060300918256
-286.48723060372305,1293.2142984607385,140.64537839119373
-187.6053494312533,1222.5989507120169,118.81733313618821
128.4730259568762,1014.5085222782502,57.53493802674716
241.5432385167208,885.5378748094407,12.56830823981686
328.484242835219,780.1583619278756,-13.246317549825884
418.21519071242477,678.3447966430942,-70.4280258803975
600.5669622144158,517.9220223011937,-110.32615623072101
681.3264468498418,474.7757898976716,-105.04606567992128
819.3429968439784,431.04627982032605,-114.6048854603764
908.7364186546885,422.8294065761499,-89.69087303003575
898.3210372553318,450.2393783809966,-62.46699943405751
738.2724987635942,571.6590272927045,-37.80159381644089
623.9194832078234,731.2038259752312,-36.12813753932281
537.494455293092,948.7072547709973,-18.533342170873848
-312.08108783325605,2677.3261001463297,6.080047722718768
-678.3335797647516,3178.302478420256,-107.06102491676566
-888.4175533948903,3496.0766418705675,-232.942951976465
-1063.9820937833003,3655.2135540679033,-330.3003574105327
-1345.9234295095675,3669.815890237747,-244.30666945389103
-1709.2177247072143,3584.516629022143,-151.34526061397113
-1898.9053346453684,3365.6243467443014,-133.8255163587974
-1827.0561302789438,2911.881223455513,-190.08733869364158
-1769.5135443805993,2481.693544686514,-219.17168452019806
-1772.2871724798988,2029.163883691169,-205.91231460284604
-1733.1912528743253,1676.576608729791,-227.68529518235076
-1630.9137167126391,1347.065511668103,-209.34263994330382
-1549.2140537288476,1083.030392641728,-242.54969841893003
-1466.0358022362377,873.4297644965407,-244.52182957482938
-1390.7399570699476,679.2961918698027,-254.5130090295871
-1277.0110078365192,488.6989950696722,-267.8641534061071
-1138.6661092218037,356.22868155792247,-249.6469232612564
-1023.2546282369618,231.7080756425487,-227.87496239796468
-927.0505218397722,153.6916276200334,-214.39635349482242
-874.6269113305767,52.48316193603321,-236.81787358578111
-837.100334976776,-33.02891405321899,-247.74107365920068
-827.6373685203409,-137.91559808905183,-286.4913094685749
-828.7264254358013,-215.4272865861431,-301.9451086762554
-818.4181142388074,-316.23949054978004,-317.14907741175637
-819.5071711542678,-413.0605252558214,-328.6127270780542
-843.1441929710963,-505.6976643400142,-324.72964773903425
-863.8566686891038,-536.8061468493319,-360.2565605991853
-943.2772659368899,-593.7328241550377,-306.309494067801
-968.0890008310688,-621.0122722846232,-349.7596019027905
-975.6318416584664,-636.359001289941,-341.9720291842781
-947.2674154782725,-613.0472689450527,-306.3043954867361
-929.972008789954,-597.2467662249596,-255.07793181157686
-911.1786389847707,-523.1419495954277,-172.62979712745945
-895.2017253598325,-417.85217174060466,-66.78070492981804
-941.5916750368374,-258.1972437070763,6.553644720674237
-950.7568843590831,-14.207502052178882,25.216358287488596
-996.6594096862844,292.32102705816976,82.36400809654674
-1091.5654173443531,580.2011900088206,174.1624305955653
-1198.4622679508295,864.1992933366645,254.0194663825058
-1320.4713128336386,1296.1408839919852,423.4188025472511
-1452.2492390367763,1762.3857280518835,525.8360398301154
-1493.782280391367,2161.6963998919105,578.8123365267447
-1410.4102828182918,2509.256473923307,578.887795526505
-1376.0050577924164,2586.1634707061025,555.5964575058762
-1270.8315275858731,2546.0274405632917,486.6636415085682
-1119.750373471063,2478.420255642855,414.5870404266493
-978.7480944053272,2388.09379349727,389.5315933575686
-838.1302483518838,2224.306975368755,368.6427067347158
-735.5559747722209,2053.2087919931887,362.9078227529279
-572.744005343313,1892.868614664539,314.8669525271117
-425.75497239118357,1693.9219815125452,262.7951441113938
-265.48821462986854,1545.5226810378674,249.9977056385208
-97.62355136565495,1381.5931026395356,237.36750062457622
23.15367633187684,1252.5582130493085,192.516302712955
109.33091320685455,1135.4030173402743,147.1063003166219
195.2093732314297,1014.3106973329324,93.85682164653578
255.0391825954837,909.1055559237865,63.71095124226928
496.4315031126838,589.2134418991195,-17.935686498447485
619.9752208960248,286.0946398617265,-58.23334166101574
650.9399234193124,247.27200420123083,-45.86469385569996
673.1340467947771,212.104031448048,-65.0366842907619
671.0528060040891,212.57819948708277,-14.049446039167302
659.2475514064437,216.46841683959357,-22.088582747421395
622.5112551177008,259.69826597257986,20.386064558233446
551.2861170736185,310.96755772868414,66.24168293963791
422.500038239358,513.3577725319044,87.17757847990906
374.038025217582,687.9393064910037,97.63650176155977
338.52334895198675,1001.8089765618229,119.5933371742644
268.4892394446626,1455.0126699739465,117.01549458785621
118.457373313007,1982.45068397465,124.76227865784954
-104.42505850621772,2440.0381373863656,45.312619497993715
-344.3031004471456,2866.4528661673457,-73.53306174891529
-662.8022821248846,3169.4921303401266,-212.76276812163178
-838.4178083239436,3224.3426654362097,-290.1469920921008
-983.1287952562802,3140.940076376745,-225.31445498717707
-1089.0875069468168,3010.956850708448,-144.04613196147514
-1247.8369269832208,2807.3093258146264,-126.1134026400453
-1268.3842086747259,2567.6964100890723,-113.83907858442996
-1154.7062452519465,2253.501450546313,-103.22791167218166
-1055.4980548913238,1997.603666899502,-77.33028098280249
-1010.9935604921152,1730.3360474779872,-71.8374776299756
-981.7960261659182,1459.3566610412324,-62.63668021189704
-983.2093528371055,1219.5601963973427,-53.99968388797399
-954.7766056706421,994.7341854761821,-76.36308015479294
-933.615454818924,812.5537262979714,-95.05458031029966
-873.4297644965407,680.4046233933097,-109.40535249040192
-836.5282741812955,525.2211509536896,-124.02808298450542
-798.6182845314149,397.324264657146,-115.17898568828298
-752.7545084203067,226.94906007658074,-90.36990205625774
-722.7972855154411,102.91179964615849,-89.50273538874133
-716.9145426827714,-21.186745728663716,-116.46790698148708
-725.8472567084581,-117.9821855577593,-131.97371171602944
-731.3894143259931,-222.64687737402681,-159.17668112964165
-717.5549244645216,-331.29560043439915,-182.14986769182138
-715.9886403613875,-482.51339652174806,-216.9385060137764
-740.688206472139,-610.1737086568809,-236.50074184354497
-804.3317544727304,-737.6392549953349,-268.42091845839303
-852.0452957941806,-791.7178649181934,-300.35027251915795
-899.4029561573016,-853.4310901276177,-320.4743719822774
-894.9773877929774,-849.4562363294297,-304.7228156404073
-906.2931786083934,-795.2389450016061,-309.00052515384976
-880.4464317580419,-736.805127133119,-242.09184583930295
-865.4525245624144,-616.313419975221,-167.70558753498904
-865.190457495679,-495.5331331290502,-73.91831053417835
-910.789107391413,-358.8513916577017,26.97771410216537
-969.7776508797604,-95.09669458989563,48.75202031274697
-1063.8597278377429,226.75123513126297,46.25708065445387
-1286.361805509527,646.808033324326,96.45169349370072
-1466.1887596681845,993.2362223593176,171.08186791615896
-1647.04562720195,1409.9106218739325,312.1779608734889
-1772.052637750914,1841.1078196937794,395.1930577720221
-1781.02614042512,2170.1090586489786,401.79775968348014
-1735.0675307062047,2464.174820147553,444.6645898446463
-1652.4909117792522,2583.6855603085664,469.04600449694857
-1503.8366822513296,2582.1151973405804,424.18256999077164
-1299.9750169527822,2463.593581906156,329.5202745076046
-1121.045413061545,2287.865886923669,305.32138905742534
-1012.2060030693459,2046.8355656620765,272.443698918591
-911.4835341324509,1786.4510306781626,231.65912926432574
-801.9109481831208,1591.9401630526227,210.40926310207874
-705.3723748680743,1439.6353494822392,137.8013898731983
-591.5659272024596,1318.5746406774995,112.44206737265021
-520.0389531593358,1232.62276108559,82.40653026262791
-431.98135958762686,1208.6288385942194,72.03265131313957
-363.9010263443684,1200.0428280809451,37.75988742333009
-279.1524118837728,1214.8287131691252,35.054784253542245
-65.7849520478451,1177.8028174758965,-24.418124435969474
21.401497963116867,1068.6218025523497,-42.366965273564375
214.6329276562333,850.0089225168635,-89.75511515145337
317.3142714382588,752.3160304487262,-107.51071976668894
363.3401824272305,663.0806646510277,-94.74621812749514
427.45891818306967,600.4364385391547,-121.04643277775797
484.0898777870119,530.1820703298272,-139.5848735296967
656.5707963473766,397.3059097653124,-136.5532572285133
749.1100426751236,327.0923302045041,-119.23133791865725
776.8483631005492,319.35166443178866,-95.24190217862369
778.8653617698196,335.30512458382833,-40.320802720602856
723.7629567691313,390.49522517883275,25.38614103694942
645.2376703563399,499.85469043965077,70.936354412567
565.7854619059517,593.533979493507,92.9779282425701
509.3992341931241,717.9169237201287,107.41180729403008
457.79139665431114,935.1868375031229,129.45399295376097
381.9887525301709,1276.9396277016108,205.65840526581457
191.31405729785402,1820.5911294886635,259.83694737754485
-71.28530130064803,2310.0753060423285,250.3280936915257
-339.617504448512,2725.732028776392,201.73555699448846
-598.5152931939042,3032.636017396359,114.40502108263273
-907.3679594968721,3204.794705633423,58.17766515578715
-1213.0442097964137,3241.5860665976666,10.303926417278072
-1407.544880259824,3099.7333442103068,-15.67854466102084
-1528.9624897391059,2822.105408064936,-16.560701156868046
-1512.60624168294,2465.9287320338753,-26.887979075423313
-1396.2770161064177,2097.3421096908733,-39.60047518775526
-1259.3393258656117,1763.7011619666248,-20.725324142291203
-1211.2291149373132,1519.5097204448005,-27.03022948713373
-1174.3255851896417,1345.0158820800173,-37.662606496612
-1141.2561884027677,1213.0442097964137,-56.345133149444514
