acc_x[mg],acc_y[mg],acc_z[mg]
-701.7748160686882,667.1646280840043,289.5963453370927
-698.2761697419609,674.7696716003937,277.849214563587
-710.6269725135495,659.2128810552024,258.0942523695656
-698.6310309840773,663.0949406780094,270.03410950732416
-694.2595075790409,659.3332075683338,285.81115875451866
-698.8217179159042,655.3236834189046,266.13369499268356
-694.3951298353669,659.2985372170925,281.8842316183406
-698.1395277694219,655.493976026472,285.76629124114766
-694.9682103470606,655.2930919325153,266.1907991006103
-694.8315683745215,636.0184160748065,274.1078757781709
-694.5593041456564,655.3960832700261,277.9705607929314
-697.9753534591324,640.0881034808014,293.67011160793953
-698.5219213492885,659.2597880009994,273.97327323805786
-698.4393243360374,651.5568517281641,277.92569327956033
-698.4668566737878,666.9973946250759,273.9488000489464
-702.157209648555,651.6210938495817,281.79449659159854
-693.8771139991742,655.5673955938063,297.6031570413954
-706.0647621766863,643.9130589956816,281.7618656727833
-698.0579504723836,647.7910397536367,289.7176915664371
-690.8149062116014,659.2006444606467,274.08952088633737
-694.5042394701555,643.8243436851525,281.9352174289895
-691.1412153997543,632.0853706413506,270.2513090606884
-694.6684137804449,659.230216230823,274.03139706219764
-697.8937761620942,651.6934937007031,293.6313623918464
-690.6231995635616,647.6625555108014,281.9800849423606
-686.579005062891,655.4052607159429,285.9396429973539
-702.1837222700923,647.7522905375436,281.80673318615436
-702.1296773108045,655.48989716162,281.7812402808299
-701.9930353382655,655.5235477966482,285.70816741700787
-701.7483034471508,671.0334313960426,289.584108742537
-693.5773174325585,659.5045198921141,305.4437550029827
-706.173871811475,647.7482116726916,277.82270194204955
-690.0236064303306,655.53782382363,297.66128086553516
-697.6765766087299,663.3345739880592,297.5205600281442
-682.5072782244702,647.7064033079595,293.8760942829611
-694.4501945108677,651.561950309229,281.9097245236651
-690.6782642390624,659.2353148118879,278.0154283063024
-702.7568027817858,643.7468452529662,266.113300668424
-701.8298807441889,659.4270214599278,289.62183824241714
-694.2860202005783,655.4644042562956,285.8233953490744
-686.3883181310641,663.1765179750477,289.8410772282074
-678.8719899252039,655.3450974593771,286.05487092942036
-690.323402996946,651.6006995253222,289.82068290394784
-683.0538461146264,666.8791075443705,274.17925591307943
-698.1395277694219,655.493976026472,285.76629124114766
-698.0039055130958,655.5286463777131,289.6921986611126
-709.454298868625,651.7832287274452,293.4580106356401
-701.0385809629181,655.7631811066981,313.19359822161493
-701.4209745427848,659.5289930812255,301.4015999347382
-698.4943890115381,643.8192451040876,277.95118618488476
-697.7581539057682,651.7281640519444,297.5582895280244
-698.4393243360374,651.5568517281641,277.92569327956033
-690.5966869420241,651.5313588228397,281.9678483478048
-690.6507319013119,663.1041181239262,278.00319171174664
-693.9311589584619,647.8297889697297,297.62864994671986
-690.2693580376582,659.3372864331857,289.7951899986234
-694.1228656065017,659.3678779195751,289.73808589069665
-709.5368958818761,659.4861650002805,289.50661031035065
-690.7057965768128,655.3665114998496,278.02868461707106
-702.7292704440355,647.6156485650044,266.10106407386826
-698.2486374042105,640.0197824945318,285.81625733558354
-698.3302147012487,647.7227187673672,281.86485701029403
-702.2928319048809,651.5864234983404,277.8675694554206
-691.386967007082,655.1951991760694,258.396088368607
-695.3230715891768,662.928726935294,254.3865642191778
-701.9930353382655,655.5235477966482,285.70816741700787
-702.3478965803818,643.8498365904769,277.89306236074503
-702.8383800788241,651.4497815258014,262.16190034313456
-689.9695614710427,663.2744107314935,297.63578796021073
-694.1769105657896,651.6302712954986,289.7625590798081
-694.1503979442522,674.8084208164869,285.76017294386975
-694.1503979442522,655.4990746075368,289.75032248525235
-698.7941855781537,659.1914670147298,266.12043868191483
-710.0273793803185,647.7777834428679,277.7645781179098
-694.3135525383286,651.5956009442573,285.83665165984314
-709.2095669775102,667.2920926106265,297.33395196116925
-683.4627523160306,666.7761162068598,262.4005139369714
-701.5565967991109,659.4953424461972,297.4756925147732
-694.6949264019825,655.3614129187847,274.04465337296637
-682.7530298317979,651.5068856337282,286.01000341604936
-694.4226621731174,655.4307536212673,281.8974879291094
-686.443382806565,674.7482575599212,285.87642059214926
-686.7431793731805,670.8111332616133,278.03582263056194
-698.1130151478844,659.3627793385102,285.75303493037893
-698.1130151478844,659.3627793385102,285.75303493037893
-690.5691546042738,655.4001621348779,281.9556117532491
-698.1130151478844,659.3627793385102,285.75303493037893
-690.8149062116014,659.2006444606467,274.08952088633737
-698.5219213492885,659.2597880009994,273.97327323805786
-690.9515481841405,659.1669938256184,270.1625937501594
-690.4875773072355,647.6972258620427,285.90701207853857
-690.9515481841405,659.1669938256184,270.1625937501594
-701.9389903789777,663.2611544207248,285.68267451168344
-706.2289364869757,659.3199512575651,273.85804530599137
-706.2014041492254,643.8794083606533,277.8349385366053
-698.9032952129423,663.0266196917398,262.18127495118114
-701.9930353382655,655.5235477966482,285.70816741700787
-706.4461360403401,647.679890686422,269.9698673859065
-690.4875773072355,667.0065720709928,281.91686253715596
-706.7459326069555,643.7427663881143,262.1292694243192
-694.1769105657896,651.6302712954986,289.7625590798081
-706.1198268521871,655.4847985805551,277.7972090367251
-686.443382806565,655.4389113509711,289.8655504173189
-694.6133491049442,647.6584766459495,277.9960536982558
-690.324422713159,670.9100457342722,285.8315530787782
-694.2860202005783,655.4644042562956,285.8233953490744
-702.0756323515167,663.2275037856965,281.7567670917184
-686.5249601036033,663.1428673400194,285.9141500920294
-716.6708305078697,644.2424273324734,309.07394472118415
-706.4196234188026,651.5476742822473,269.9566110751378
-698.0579504723836,647.7910397536367,289.7176915664371
-694.3686172138295,663.1673405291308,281.8719950237849
-697.621511933229,651.7618146869727,301.48521666420237
-698.4393243360374,651.5568517281641,277.92569327956033
-705.8465429071091,655.5541392830377,285.65004359286814
-706.2554491085132,655.4511479455268,273.8702819005471
-697.7581539057682,651.7281640519444,297.5582895280244
-701.3118649079961,655.6948601204286,305.3407636654719
-713.8808869491621,647.8073552130443,277.7064542937701
-713.7442449766231,647.8420255642856,281.6333814299481
-690.5966869420241,651.5313588228397,281.9678483478048
-698.5759663085764,651.5232010931359,273.99876614338234
-702.5926284714965,647.6492992000327,270.0269714938333
-690.92401584639,663.0357971376567,270.1503571556036
-701.6932387716499,659.4606720949561,293.5487653785952
-690.7323091983502,651.4977081878114,278.0409212116268
-686.7156470354302,655.3705903647016,282.0127158611759
-694.6949264019825,655.3614129187847,274.04465337296637
-702.2928319048809,651.5864234983404,277.8675694554206
-702.9474897136128,655.2849342028114,258.2227366124008
-705.6558559752822,663.3253965421424,289.55147782372165
-690.5416222665233,659.2689654469162,281.9423554424804
-706.0382495551489,667.0912085166699,277.75947953684494
-709.7275828137031,651.7149077411757,285.6051760794971
-705.9281202041473,643.9477293469228,285.6887928089613
-697.948840837595,663.2662530017897,289.66772547200117
-702.1021449730541,640.0493542647082,285.7591532276568
-701.3383775295335,632.5167105994402,309.3431498014103
-699.14904682027,647.5177558085586,258.30533362565205
-701.9930353382655,636.2142015876982,289.69831695839054
-694.667394064232,639.9208700218729,278.02154660358025
-702.7292704440355,647.6156485650044,266.10106407386826
-698.3312344174617,667.0320649763172,277.8747074689115
-698.1670601071722,651.6251727144336,285.77852783570336
-690.5416222665233,659.2689654469162,281.9423554424804
-698.4128117145,655.4256550402024,277.9124369687916
-698.6575436056147,639.9167911570211,274.0364956432625
-701.7748160686882,647.8552818750543,293.5864948784754
-709.6725181382022,659.4525143652522,285.57968317417266
-699.012404847731,647.5514064435869,262.23226076183
-687.6425690730271,658.99976036669,254.51402874580006
-709.9447823670673,640.0748471700326,281.7169981594123
-702.2663192833435,655.4552268103787,277.85533286086485
-705.70990093457,655.5877899180659,289.57697072904614
-693.9321786746749,667.1391351786798,293.6395201215502
-690.7323091983502,651.4977081878114,278.0409212116268
-686.306740834026,655.4735817022123,293.7924775534969
-694.3675974976165,643.8579943201808,285.86214456516757
-710.3271759469341,643.8406591445602,269.92398015632256
-698.1660403909592,632.3158265054835,289.768677377086
-697.7306215680177,655.5969673639827,297.5460529334687
-694.4226621731174,655.4307536212673,281.8974879291094
-694.0137559717132,655.5327252425651,293.67724962143035
-694.1769105657896,651.6302712954986,289.7625590798081
-710.0814243396063,640.0401768187915,277.7900710232343
-686.906333967257,647.5993331055968,278.1112816303223
-694.0137559717132,655.5327252425651,293.67724962143035
-709.9182697455299,663.2519769748079,277.71461202347393
-702.8659124165746,647.5809782137632,262.17413693769026
-706.4461360403401,647.679890686422,269.9698673859065
-713.0895871678912,644.1435148598146,301.27923398918085
-690.2153130783704,667.0748930572622,289.77071680951195
-701.6116614746118,651.7577358221208,297.50016570388465
-690.0236064303306,655.53782382363,297.66128086553516
-698.0579504723836,647.7910397536367,289.7176915664371
-701.6381740961491,647.8889325100826,297.5134220146533
-694.1228656065017,659.3678779195751,289.73808589069665
-702.5926284714965,647.6492992000327,270.0269714938333
-690.3509353346965,647.7318962132839,289.83393921471657
-697.7581539057682,651.7281640519444,297.5582895280244
-694.6408814426945,643.7896733339112,278.0082902928115
-686.0885215644487,647.8042960644053,301.6708050149644
-705.4916816649927,628.6091580713088,301.44544773189625
-691.0055931434282,651.4293872015419,270.18808665548386
-689.7513422014654,655.6061448098994,305.5141154216782
-698.0854828101341,663.2315826505485,285.7407983358232
-701.8023484064386,663.2958247719661,289.60960164786144
-693.6864270673473,663.3386528529112,301.50459127224894
-702.0470802975533,647.7869608887847,285.73366032233236
-701.6932387716499,659.4606720949561,293.5487653785952
-702.4570062151704,647.683969551274,273.95389863001134
-710.1905339743951,643.8743097795884,273.85090729250055
-694.0953332687513,663.2356615154004,289.7248295799279
-698.6034986463268,647.6543977810976,274.012022454151
-713.9899965839508,651.6414881738413,273.76729056303634
-713.5535580447962,655.6132828233903,285.5348156608016
-698.6034986463268,647.6543977810976,274.012022454151
-686.4698954281024,651.5701080389329,289.8788067280876
-706.2829814462635,651.5823446334887,273.88353821131585
-674.801282802996,666.9555862603439,290.00117267364493
-702.1296773108045,655.48989716162,281.7812402808299
-686.9338663050073,663.0398760025085,274.1343883997084
-686.443382806565,655.4389113509711,289.8655504173189
-714.3438381098541,639.96777696767,265.9521855067735
-706.2289364869757,659.3199512575651,273.85804530599137
-695.5402711425411,651.2876466479379,250.49736658288
-709.4818312063753,647.914425415407,293.47126694640883
-709.3462089500493,667.2584419755982,293.4080445412042
-694.9141653877726,663.0306985565918,266.16632591149886
-698.1945924449226,647.7563694023954,285.7917841464721
-697.6755568925169,644.0252277791092,301.50968985331383
-690.7047768605998,636.0571652908997,282.0188341584537
-698.1945924449226,647.7563694023954,285.7917841464721
-678.5721933585884,659.2822217576849,293.8954688910077
-689.723809863715,659.4749481219378,305.5018788271225
-701.9930353382655,655.5235477966482,285.70816741700787
-686.3342731717764,651.6047783901741,293.8057338642656
-693.9862236339627,659.4015285546034,293.6639933106617
-694.4501945108677,651.561950309229,281.9097245236651
-694.5042394701555,643.8243436851525,281.9352174289895
-683.9257034767226,658.9365379614854,250.64624514997482
-687.233662871623,659.1027517042008,266.2937904381211
-683.7074842071453,651.2672523236785,258.5245726114423
-686.7972243324683,663.0735266375368,278.0613155358864
-683.0803587361638,643.7009580233822,278.1816420490178
-675.5915628680539,651.3100804046235,270.4195622358298
-679.3910254776097,659.0772587988763,270.3359455063656
-690.0776513896184,647.8002171995535,297.6867737708596
-690.1051837273687,643.9314138875152,297.69901036541535
-701.4474871643223,655.6612094854004,301.41485624550694
-698.4403440522503,670.8661979371142,273.93554373817767
-693.4141628384821,663.4069738391806,309.357425828392
-697.5939795954787,655.630617999011,301.4719603534337
-693.7404720266351,655.6010462288345,301.5300841775734
-698.0314378508461,670.9691892746249,285.7153054304987
-678.5997256963389,655.4134184456467,293.9087252017764
-698.1945924449226,667.0657156113455,281.8016346050894
-694.0963529849644,682.5460274405633,285.7356997547583
-686.5524924413537,659.2740640279811,285.92638668658515
-682.6714525347597,663.11227585363,285.9722739161692
-678.6272580340892,651.5456348498213,293.9209617963321
-674.0925800349763,670.9957018961624,309.62153232755327
-682.1259043608165,663.2489178261691,301.6779430284552
-662.3678830181561,674.8094405326998,313.7085549091688
-681.1174050261812,671.2261577602955,329.1389006439508
-685.3247541209282,659.5820183243004,321.26567176354826
-689.3699683378117,671.148659328109,313.31698388338526
-670.8386655993638,663.0918815293705,293.99846022851847
-670.7295559645752,659.2577485685734,297.93762395925216
-682.4807656029328,651.5752066199977,293.8628379721924
-682.9437167636248,643.7346086584105,282.1085691851958
-671.1925071252672,651.4171506069861,286.18335517225563
-658.7325947188898,663.1387884751674,309.87850081322375
-670.7295559645752,659.2577485685734,297.93762395925216
-671.5473683673835,659.0517658935519,274.37810057461013
-674.5830635334188,659.2873203387497,297.87950013511244
-673.7377187928599,663.3610866095967,321.42678692519877
-685.6796153630445,667.2166336108662,309.46041716590275
-696.8312318681712,667.408340258906,321.06682710201756
-689.5881876073889,678.817944965916,305.4386564219178
-704.510714668108,671.336287111297,320.93834285918234
-697.7041089464802,678.775116884971,293.5436667975303
-690.5151096449858,663.1377687589545,281.9301188479247
-671.247571800768,662.9888901918597,282.2186985361974
-675.0470344103237,670.7560685861125,282.1361015229462
-666.7128938016551,682.4399769544136,297.9192690674186
-674.5014862363805,670.8927105586516,297.84177063523225
-678.1092421978964,686.4321659282223,301.6606078528346
-670.4022270602092,686.3720026716566,301.7758357849011
-681.3080919580082,682.7642467101407,321.24731687171465
-677.9460876038199,671.0252736663388,309.56340850341354
-671.0018201934403,659.188407866091,290.08478940310914
-674.3097795883407,659.3556413250193,305.7333544074684
-678.5456807370509,663.1510250697231,293.883232296452
-674.5830635334188,659.2873203387497,297.87950013511244
-693.7414917428481,674.9103924377847,297.5399346361908
-678.5456807370509,663.1510250697231,293.883232296452
-678.0001325631077,682.5970132512123,305.5997715835683
-678.0551972386086,674.8604263433488,305.6242447726798
-678.5456807370509,682.4603712786733,289.8930827550693
-674.8288151407464,682.3971488734686,286.02427944303105
-682.3451433466067,690.2275496729261,289.81048574181807
-663.2958247719661,678.4386105346882,286.21088751000605
-675.0745667480741,686.1966114830243,278.15920829233227
-679.145273870282,674.5861226820576,274.2118868318947
-686.306740834026,655.4735817022123,293.7924775534969
-679.4450704368975,670.6489983837498,266.37230858652043
-683.2720653842036,674.5473734659645,266.300928451612
-679.009651613956,674.6207930332989,278.1388139680727
-679.7183543819756,670.5806773974804,258.5184543141644
-682.9987814391257,674.615694452234,274.15478272396797
-675.7282048405929,670.5857759785453,262.5035052744821
-680.1272605833797,670.4787057761826,246.73869262184337
-675.7016922190555,674.4535595743706,262.49024896371344
-679.7448670035129,666.7118740854421,258.5317106249331
-683.2445330464532,678.4161767780028,266.2886918570562
-678.681302993377,663.1173744346949,289.9563051602739
-678.4906160615501,670.8886316937998,293.8577393911275
-670.5653816542856,663.16020251564,301.8512947846615
-690.6507319013119,663.1041181239262,278.00319171174664
-686.7156470354302,655.3705903647016,282.0127158611759
-681.5803561868734,663.3865795149211,317.3846318569543
-682.1534366985669,678.6904804392939,297.7010497978413
-689.2333263652727,671.1833296793503,317.2439110195633
-686.1711185777,674.8165785461906,293.7292551482923
-690.2418256999077,663.206089745224,289.7829534040677
-682.0178144422408,678.7241310743221,301.6279769340193
-678.4365711022624,678.6262383178762,293.832246485803
-674.5290185741309,686.3342731717764,293.8648774046183
-686.8247566702188,659.2057430417116,278.0735521304421
-678.9545869384551,663.0490534484254,282.1034706041309
-667.1218000030592,663.0276394079528,290.1296569164802
-663.3498697312539,651.3916577016618,290.2255102405001
-678.5181483993006,667.0198283817614,293.86997598568325
-659.5238945001606,666.8026288283971,286.30674083402596
-666.8485160579812,663.0959603942224,297.9824914726232
-681.9087048074522,674.889998113525,305.567140664753
-674.6921731682073,682.4307995084969,289.95120657920904
-689.4790779726003,694.2931582140692,305.3876706112689
-678.0001325631077,682.5970132512123,305.5997715835683
-678.354993805224,690.232648253991,293.7945169859228
-686.3893378472771,682.4858641839977,285.85092768682483
-682.4532332651825,674.753356140986,289.860451836254
-675.2377213421505,662.9848113270078,278.23466729209264
-674.664640830457,666.9902566115851,293.928099809823
-674.8563474784968,678.5283455614303,286.0375357537998
-667.1493323408097,678.4681823048646,286.15276368586626
-670.9742878556898,663.0572111781293,290.07255280855344
-670.6479786675369,670.8631387884752,297.89989445937204
-666.0857683306737,674.8736826541174,317.5773582212071
-678.9821192762056,659.180250136387,282.11570719868666
-659.1690332580444,678.4773597507815,294.12184589028874
-670.5388690327483,667.0290058276782,301.83905819010573
-678.0551972386086,674.8604263433488,305.6242447726798
-670.9742878556898,663.0572111781293,290.07255280855344
-663.2958247719661,678.4386105346882,286.21088751000605
-678.2723967919728,663.2193460559927,301.736066852595
-670.9742878556898,663.0572111781293,290.07255280855344
-666.8485160579812,663.0959603942224,297.9824914726232
-670.0748981558432,674.8685840730525,313.5933269771023
-678.0001325631077,682.5970132512123,305.5997715835683
-669.6384596166888,678.8403787226016,325.36085207486764
-669.8301662647286,690.3784676724468,317.4692683026314
-674.47395389863,674.7615138706898,297.82953404067655
-674.0375153594756,678.7333085202389,309.5960394222288
-659.1690332580444,678.4773597507815,294.12184589028874
-685.6255704037568,674.9542402349427,309.4359439767913
-674.6371084927065,670.8590599236234,293.9158632152672
-666.7404261394055,678.5711736423755,297.9325253781873
-678.8730096414168,674.6544436683272,282.0657411042507
-666.9576256927697,666.9311130712323,294.04332774188947
-674.7737504652456,670.8243895723821,289.9889360790892
-674.3648442638415,670.9273809098929,301.76869777141025
-670.9753075719028,682.3665573870792,286.0824032671708
-678.5997256963389,674.7227646545967,289.91857566039374
-690.2428454161208,682.5154359541741,285.79280386268505
-683.7350165448956,666.7077952205902,254.54665966461536
-685.7611926600828,674.9195698837015,305.5090168406133
-667.7213931362903,674.4627370202874,270.4593311681359
-663.8138406081588,682.1707718741875,270.4919620869513
-674.6371084927065,670.8590599236234,293.9158632152672
-670.9477752341523,686.2353606991175,286.06914695640205
-678.354993805224,690.232648253991,293.7945169859228
-674.6921731682073,682.4307995084969,289.95120657920904
-683.026313776876,690.0572570653588,270.17686977714106
-689.5881876073889,678.817944965916,305.4386564219178
-693.9872433501757,678.7108747635534,289.674863485492
-682.9447364798377,682.3533010763106,274.1292898186435
-682.4267206436449,678.6221594530243,289.84821524169826
-667.0942676653088,686.2057889289412,286.12727078054183
-667.5031738667129,686.1027975914304,274.3475090882208
-671.384213773307,682.2645857657815,274.30264157484976
-671.7931199747112,662.8522482193206,266.51302942391135
-668.1578316754448,670.4919620869513,258.69180607037066
-679.3359608021088,666.814865422953,270.31147231725413
-671.6299653806346,686.0650680915502,266.436550707938
-678.818964682129,682.3920502924037,282.0402481989263
-682.6724722509726,682.42162206258,281.9821243747865
-686.4158504688146,678.6170608719594,285.86316428138053
-686.4984474820658,686.3199971447947,281.911763956091
-675.5650502465164,693.7975761345618,262.42702655850877
-687.3978371819123,674.5096439660844,258.3899700713292
-679.146293586495,693.8954688910077,270.22275700672503
-691.1697674537177,686.1446059561625,258.2951364635222
-679.6643094226878,678.3182840215569,258.4929614088399
-683.1904880871655,686.1537834020793,266.26319895173174
-678.8730096414168,674.6544436683272,282.0657411042507
-702.0481000137662,667.0963070977348,281.7435107809497
-686.7982440486813,682.3838925626999,274.07116599450376
-698.3852793767495,678.6038045611907,273.91005083285324
-691.3604543855446,678.3733486970576,254.39370223266866
-698.2761697419609,674.7696716003937,277.849214563587
-683.1078910739142,678.450847129244,270.2156189932342
-686.7982440486813,682.3838925626999,274.07116599450376
-675.8373144753816,674.4199089393423,258.5643415437484
-690.8699708871022,670.7723840455202,270.1248642502792
-679.3094481805714,670.6836687349911,270.29821600648546
-688.2982465979719,682.007617280111,230.87904636139763
-695.1323846573499,670.6999841943988,258.2869787338184
-680.3179475152066,682.0157750098149,238.84812856582013
-683.9807681522233,689.817623755309,242.69143897253394
-691.114702778217,674.572866371289,262.25877338336744
-679.41855781536,674.5178016957882,266.35905227575165
-686.7431793731805,670.8111332616133,278.03582263056194
-675.5375179087661,678.3570332376501,266.4039197891227
-683.2985780057411,670.6795898701392,266.31418476238065
-679.1728062080324,670.7173193700194,274.2251431426634
-683.3261103434915,686.120132767051,262.3372915317667
-679.2278708835331,682.2900786711059,270.2604865066052
-691.4144993448324,670.6357420729812,254.41919513799314
-698.9032952129423,663.0266196917398,262.18127495118114
-687.4794144789505,682.2125802389196,254.43856974603972
-680.4545894877456,681.9821243747866,234.92120142964214
-686.8798213457196,690.0868288355351,270.11976566921425
-695.4862261832533,659.0252532720145,250.47187367755558
-683.489264937568,662.9073128948214,262.4127505315271
-683.0803587361638,663.0103042323321,274.19251222384815
-675.9464241101703,678.2540419001392,254.62517781301466
-679.472602774648,666.7801950717115,266.38454518107613
-703.8203667919219,666.6517108288765,230.69855659170054
-699.2306241173081,674.5300382903439,250.36378375897988
-687.3162598848741,666.8056879770361,262.34239011283165
-683.8176135581468,693.7200777023755,246.60510979794324
-691.5511413173714,670.6020914379529,250.49226800181512
-702.157209648555,670.9304400585318,277.804347050216
-695.1048523195996,674.568787506437,258.2747421392627
-694.9141653877726,663.0306985565918,266.16632591149886
-699.3122014143465,662.9236283542291,250.4015132588601
-702.8393997950371,670.7591277347515,258.1717508017519
-687.6701014107774,674.4403032636018,250.53713551518615
-710.5729275542618,647.6411414703289,262.0589090056238
-691.3329220477941,662.9328058001458,258.3705954632826
-691.0871704404666,659.1323234743771,266.23668633019435
-691.714295911448,666.6986177746734,246.57859717640582
-686.6065374006415,670.8458036128546,281.96274976673993
-690.7873738738509,663.069447772685,274.07626457556864
-687.4253695196628,670.6408406540461,258.4032263820979
-690.4875773072355,667.0065720709928,281.91686253715596
-690.8699708871022,670.7723840455202,270.1248642502792
-683.0538461146264,666.8791075443705,274.17925591307943
-687.7251660862783,666.7037163557383,250.5626284205106
-699.285688792809,666.7924316662674,250.38927666430436
-694.7499910774833,666.9341722198714,270.07999673690813
-699.012404847731,666.8607526525369,258.2421112204474
-690.7598415361006,666.9382510847232,274.06402798101294
-699.012404847731,666.8607526525369,258.2421112204474
-690.92401584639,663.0357971376567,270.1503571556036
-690.5691546042738,655.4001621348779,281.9556117532491
-698.1945924449226,667.0657156113455,281.8016346050894
-701.2568002324954,663.4324667445051,305.3152707601475
-710.191553690608,663.1836559885385,269.8607577511179
-683.026313776876,670.7479108564088,274.16701931852367
-698.2496571204234,678.638474912432,277.83697796903124
-690.0786711058313,667.1095634085035,293.696624229477
-710.1364890151071,651.611916403665,273.82541438717607
-710.2180663121454,659.3148526765002,269.8740140618866
-702.8108477410738,655.3185848378397,262.14864403236584
-705.7374332723203,651.7189866060277,289.5892073236019
-694.2870399167913,674.7737504652456,281.8342655239047
-702.4019415396696,655.4215761753504,273.92840572468685
-683.4352199782801,651.3355733099479,266.3774071675853
-695.0497876440987,662.9970479215635,262.23939877532086
-698.8217179159042,674.6330296278546,262.1435454513009
-691.0871704404666,659.1323234743771,266.23668633019435
-706.1463394737245,651.6170149847298,277.8094456312808
-706.447155756553,666.9892368953722,265.97971784452386
-706.8009972824564,655.3145059729878,258.1646127882611
-702.0205676760158,651.65474448461,285.7204040115636
-694.6133491049442,647.6584766459495,277.9960536982558
-690.6507319013119,643.7947719149761,281.9933412531293
-709.8091601107412,659.417844014011,281.65377575420763
-698.4668566737878,647.6880484161259,277.93792987411604
-709.8091601107412,659.417844014011,281.65377575420763
-690.7598415361006,647.6289048757732,278.05417752239555
-698.4128117145,655.4256550402024,277.9124369687916
-693.7955367021359,667.1727858137081,297.56542754151525
-705.8740752448595,651.6853359709994,285.66329990363687
-699.14904682027,647.5177558085586,258.30533362565205
-698.5759663085764,651.5232010931359,273.99876614338234
-706.6643553099174,655.3481566080161,262.0915399244391
-690.4325126317347,655.4348324861191,285.88151917321414
-686.1435862399495,659.3760356492788,297.7061483789062
-702.5110511744583,659.2557091361475,269.9892419939531
-709.5634085034136,655.6173616882422,289.5188469049064
-698.2761697419609,655.4603253914437,281.8393641049696
-710.1640213528576,647.7431130916267,273.8386706979448
-714.2347284750655,636.13262429066,269.8913492375072
-705.9281202041473,643.9477293469228,285.6887928089613
-698.5209016330756,639.9504417920493,277.9634227794405
-698.3852793767495,639.9851121432906,281.8903499156185
-698.1670601071722,651.6251727144336,285.77852783570336
-709.590940841164,632.4392121672539,293.5212330408448
-690.7323091983502,651.4977081878114,278.0409212116268
-697.8937761620942,651.6934937007031,293.6313623918464
-698.8482305374415,632.1445141817034,270.1360811286219
-698.7126082811154,651.4885307418946,270.0728587234173
-702.4019415396696,636.1122299664004,277.91855526606946
-714.398902785355,632.2301703435934,265.977678412098
-714.3173254883167,643.8355605634952,265.93994891221774
-706.6918876476677,632.1700070870278,266.09392606037744
-699.3122014143465,643.614282145279,254.39166280024273
-709.9998470425681,632.3372405459561,281.74147134852376
-718.4430972860254,624.4874651384521,262.0191400733176
-717.7333748017928,628.5275807742706,281.638480011013
-721.9417436127527,636.1917678310127,269.7761213054407
-717.9791264091205,632.3280631000393,273.7734088603142
-721.3696828172721,640.198232831803,285.46955382317105
-713.4984933692954,644.0415432385167,289.49947229685984
-713.4444484100076,632.4687839374303,293.464128932918
-687.4794144789505,643.5938878210195,262.417849112592
-725.2231903861156,640.2278046019793,285.41142999903127
-710.1905339743951,643.8743097795884,273.85090729250055
-699.3937787113847,651.3172184181143,250.44026247495324
-709.5093635441258,644.0456221033687,293.4835035409646
-702.0470802975533,647.7869608887847,285.73366032233236
-706.0096975011855,632.3413194108081,285.7265223088415
-709.9723147048177,636.2060438579944,281.729234753968
-725.4954546149808,640.1594836157099,277.55859544288825
-713.7167126388728,632.4004629511608,285.61027466056197
-722.0233209097909,624.5863776111108,269.81385080532095
-701.6657064338995,644.0201291980443,297.52565860920913
-706.5552456751287,651.514023647219,266.0307036551728
-725.5494995742686,632.4218769916332,277.58408834821273
-717.9791264091205,632.3280631000393,273.7734088603142
-722.1874952200803,639.9922501567814,261.91003043852896
-729.6212264126895,640.1207343996167,269.6476370626055
-717.4070656136398,636.3335083846167,289.4668413780445
-712.7897906012757,648.0806391581224,309.11881223455515
-717.5977525454667,647.8715973344619,281.5752576058083
-725.5770319120189,628.5530736795951,277.5963249427685
-721.9142112750022,640.0605711430509,269.763884710885
-725.6310768713068,620.8154670555185,277.6218178480929
-705.8740752448595,651.6853359709994,285.66329990363687
-718.7704261903913,635.9919034532691,250.20164888111643
-714.9158989053348,616.6519657579297,254.2489025304258
-730.657258085075,628.2746911534521,242.1999357578786
-713.9349319084499,640.0697485889677,277.7319471990945
-729.4305394808625,647.8919916587215,273.54907129345906
-740.1181851090842,636.6149500593986,300.89989955795306
-725.8768284786345,643.9252955902373,265.7665971560115
-737.1926192940506,659.5238945001606,269.4691867253344
-721.1514635476948,651.8382934029461,289.35875145946886
-732.8751408483021,648.0245547664085,285.27070916164035
-736.8377580519342,651.8892792135949,281.2734216067669
-713.9073995706996,643.938551901006,277.7197106045388
-718.0882360439091,636.1621960608363,269.8342451295805
-718.0617234223716,640.0309993728746,269.82098881881177
-714.6436346764697,636.0306526693622,258.11260726139915
-721.8601663157144,628.4888315581774,273.72752163073017
-706.5277133373784,636.0734807503072,270.0075968857867
-729.6487587504398,636.2519310875783,269.6608933733742
-702.8648927003616,628.2716320048131,266.1642864790729
-714.3173254883167,643.8355605634952,265.93994891221774
-713.6351353418345,624.6975266783255,289.56269470206445
-713.6891803011223,636.269266263199,285.59803806600627
-713.6351353418345,644.0068728872756,285.57254516068184
-702.8383800788241,651.4497815258014,262.16190034313456
-722.6229140430219,616.7121290144953,254.1336745983593
-703.1106443076892,632.0721143305818,258.2981956121612
-706.9366195387825,635.9704894127965,258.2278351934657
-702.8659124165746,647.5809782137632,262.17413693769026
-702.4019415396696,636.1122299664004,277.91855526606946
-705.9556525418977,659.3882722438345,281.71087986213445
-718.0617234223716,640.0309993728746,269.82098881881177
-719.1793323917955,616.5795659068082,242.41101701396505
-707.2639484431484,628.1645618024504,250.4004935426471
-711.2265656467806,612.7199400406868,250.3923358129433
-721.9142112750022,620.751224934101,273.75301453605465
-725.9859381134231,628.4500823420842,265.8165632504474
-733.202469752668,620.9092809471125,281.43249733599146
-729.7038234259406,647.8236706724518,265.69623673731604
-721.7785890186761,659.4045877032422,269.70066230568034
-706.4736683780905,663.1204335833338,265.9919544390797
-707.2099034838606,655.2115146354771,246.38485109594004
-706.3920910810523,636.1071313853355,273.93350430575174
-710.9267690801651,635.9664105479445,254.2438039493609
-726.449908990328,620.61050409671,254.06229446345083
-710.8717044046642,624.394670963071,258.20744086920615
-701.5841291368613,636.317192925209,301.47807865071155
-713.1171195056417,640.2747115477763,301.2914705837366
-713.3893837345067,620.8970443525567,297.42776585276323
-724.9223741032872,624.8555826913371,297.24217750200125
-717.1613140063121,632.5330260588479,297.3329322449563
-705.0827754635886,648.0214956177697,309.23505988283466
-725.249703007653,636.359001289941,285.4246863098
-717.0246720337731,632.5676964100891,301.2588396649213
-706.2829814462635,651.5823446334887,273.88353821131585
-708.9362830324321,648.051067387946,309.1769360586949
-709.8091601107412,640.1084978050609,285.6429055793773
-709.263611936798,640.2451397776,301.3495944078763
-701.502551839823,647.9236028613237,301.43932943461834
-701.365909867284,628.647907287402,309.356406112179
-708.4723121555271,636.5823191405833,324.9213543870741
-709.454298868625,632.4738825184952,297.44816017702277
-709.317656896086,632.5075331535235,301.37508731320077
-717.488642910678,624.7270984485018,289.5045708779247
-702.1286575945916,636.1805509526699,285.7713898222125
-713.2812938159311,655.6816038096598,293.3876502169446
-694.0943135525383,624.6169690975003,297.7051286626932
-706.2014041492254,643.8794083606533,277.8349385366053
-697.5939795954787,636.3212717900609,305.4621098948163
-729.2673848867861,632.4861191130509,281.452891660251
-717.2979559788512,632.4993754238196,293.4060051087783
-705.4101043679544,640.2155680074236,301.4066985158031
-702.2112546078426,643.8834872255052,281.81998949692303
-701.5841291368613,636.317192925209,301.47807865071155
-690.4865575910225,628.3878796530926,289.8971616199212
-694.6949264019825,636.0520667098348,278.03378319813595
-687.1245532368342,655.2686187434037,270.23295416885486
-725.7952511815962,636.222359317402,269.717997481301
-709.5093635441258,644.0456221033687,293.4835035409646
-701.6932387716499,640.151325886006,297.5389149199778
-705.5467463404935,640.1819173723953,297.4807910958381
-698.6850759433651,636.0479878449828,274.04975195403125
-702.5385835122087,636.0775596151592,273.99162812989147
-721.2870858040209,632.4942768427547,289.4219738646735
-714.3163057721036,624.5262143545452,269.9300984536004
-721.4237277765599,632.4606262077265,285.4950467284955
-709.7540954352404,647.8461044291374,285.61741267405284
-713.1986968026799,647.9786675368246,297.3400702584471
-721.695992005425,632.3923052214569,277.64221217235246
-710.3547082846844,639.9718558325219,269.9372364670912
-718.5246745830636,651.5007673364503,254.0775902066455
-713.8258222736613,636.2356156281708,281.6711109298283
-717.4070656136398,655.6428545935667,285.4766918366619
-729.1032105764966,636.3885730601174,285.36656248566027
-714.0175289217011,647.772684861803,273.78054687380506
-733.202469752668,620.9092809471125,281.43249733599146
-717.7068621802553,632.3963840863089,281.62624341645727
-725.6586092090572,636.2560099524303,273.644924617479
-741.3183910917593,620.8664528661674,269.5375077116039
-714.0440415432386,643.9049012659777,273.79278346836077
-737.083509659262,636.3793956142007,277.3974802812378
-733.3656243467444,636.316173208996,273.5296966854125
-729.7303360474781,643.9548673604137,265.7084733318718
-718.8520034874296,643.6948397261043,246.24922883961398
-714.3173254883167,643.8355605634952,265.93994891221774
-730.1402619650952,643.8528957391159,253.92871163955076
-722.15996288233,624.5517072598697,265.8879433853559
-725.8227835193467,632.3535560053638,269.7312537920697
-698.9298078344798,639.8484701707516,266.1836610871195
-703.029067010651,643.6785242666966,258.260466112281
-706.8275099039938,632.1363564519995,262.16699892419945
-726.313267017789,620.6441547317382,257.9892215996288
-714.8078089867591,632.1271790060827,254.1979167197769
-717.9791264091205,632.3280631000393,273.7734088603142
-717.7884394772935,640.0993203591441,277.67484309116776
-714.0165092054882,628.463338652853,277.7696766989747
-702.8383800788241,651.4497815258014,262.16190034313456
-706.9916842142833,647.54222899767,254.26317855740749
-737.5739931577043,643.9803602657381,261.66631826362726
-722.3781821519073,632.2209928976768,258.0096159238884
-713.9889768677377,632.3321419648912,277.75744010441895
-718.4706296237758,639.9290277515768,258.04122712649075
-718.2248780164481,616.819199216858,269.8974675347851
-729.4305394808625,628.5826454497715,277.5392208348417
-729.3764945215747,636.3202520738479,277.51372792951724
-725.713673884558,628.5184033283538,273.67041752280346
-724.8407968062488,636.4609729112389,297.204448002121
-729.5121167779008,636.2855817226067,273.58680079333925
-725.0590160758262,624.8209123400958,293.31525036582326
-698.1130151478844,659.3627793385102,285.75303493037893
-718.0882360439091,636.1621960608363,269.8342451295805
-694.6408814426945,643.7896733339112,278.0082902928115
-706.2003844330123,624.5700621517033,281.8250880779879
-710.0814243396063,620.7308306098414,281.7802205646169
-706.6918876476677,632.1700070870278,266.09392606037744
-710.4903305410105,620.6278392723307,270.0004588722959
-733.8020628858989,632.344378559447,261.7621715876472
-714.262260812816,632.2638209786217,269.904605548276
-709.9998470425681,632.3372405459561,281.74147134852376
-726.2857346800386,624.5129580437765,257.9769850050731
-717.6793298425049,636.2651873983472,281.6140068219015
-709.7000504759527,636.2743648442639,289.582069310111
-717.5151555322154,620.8582951364637,289.5168074724804
-721.7510566809258,624.6546985973804,277.666685361464
-725.8768284786345,624.6159493812874,269.75674669739414
-725.0590160758262,644.130258549046,289.32612054065356
-713.7167126388728,632.4004629511608,285.61027466056197
-720.2785864693856,640.471516776881,316.8819117639561
-716.6973431294072,640.3736240204352,309.0872010319528
-713.0895871678912,644.1435148598146,301.27923398918085
-705.5192140027431,644.0497009682206,297.46753478506935
-721.6419470461371,640.1299118455335,277.61671926702803
-709.6449858004519,624.7016055431774,293.5467259461692
-713.9889768677377,632.3321419648912,277.75744010441895
-721.4512601143103,628.5918228956882,285.50728332305124
-720.496805738963,628.831456205738,312.99373384387127
-717.1613140063121,651.8423722677979,293.3427827035736
-720.9057119403672,628.7284648682273,301.21397215155025
-705.0011981665504,640.3185593449343,313.1864602081241
-705.70990093457,636.2784437091159,293.56712027042875
-721.3146181417712,628.6254735307165,289.43421045922923
-710.3271759469341,643.8406591445602,269.92398015632256
-725.7401865060954,624.6496000163156,273.68265411735916
-713.4169160722571,636.3375872494685,293.4508726221493
-713.6891803011223,636.269266263199,285.59803806600627
-706.2279167707627,640.010605048615,277.848194847374
-705.0827754635886,628.7121494088196,313.22520942421727
-721.2605731824834,636.363080154793,289.4087175539048
-709.3727215715867,624.7699265294469,301.3995605023122
-709.317656896086,632.5075331535235,301.37508731320077
-705.2183977199146,628.6774790575784,309.2982822880393
-694.5858167671938,632.2179337490377,281.97294692886976
-701.3383775295335,632.5167105994402,309.3431498014103
-709.5358761656631,640.1768187913304,293.49574013552035
-709.0994376265087,644.1486134408794,305.2632652332856
-709.4267665308745,636.3426858305334,297.43592358246707
-697.5399346361909,644.0588784141374,305.4366169894918
-706.2279167707627,640.010605048615,277.848194847374
-713.3078064374686,632.5034542886716,297.39003635288304
-682.0983720230661,647.8083749292573,305.65483625906916
-698.3302147012487,628.4133725584171,285.8550065516767
-709.7816277729909,643.9773011170993,285.6306689848215
-706.1463394737245,632.3066490595668,281.7995951726635
-698.3302147012487,628.4133725584171,285.8550065516767
-705.7649656100708,647.8501832939894,289.6024636343706
-713.5800706663337,632.435133302402,289.53720179673996
-725.3863449801921,636.3243309386999,281.497759173622
-717.2428913033503,640.2369820478962,293.3805122034538
-720.8781796026167,632.5972681802655,301.2007158407815
-716.9430947367348,644.173086629991,301.2211101650411
-713.8258222736613,636.2356156281708,281.6711109298283
-701.4474871643223,636.3508435602373,305.4039860706766
-717.0246720337731,632.5676964100891,301.2588396649213
-712.271774765083,644.3494975348361,324.8377376576099
-709.8356727322787,636.2396944930226,285.656161890146
-702.1286575945916,636.1805509526699,285.7713898222125
-710.0814243396063,640.0401768187915,277.7900710232343
-716.9981594122356,655.7458459310775,297.25645352898295
-714.1256188402768,632.2984913298629,273.830512968241
-709.8632050700292,632.3708911809844,285.66839848470175
-712.8163032228132,624.9024896371341,313.1222180867065
-701.5841291368613,636.317192925209,301.47807865071155
-698.084463093921,643.9222364415984,289.7309478772058
-706.9641518765328,632.1016861007582,258.2400717880214
-721.3961954388095,636.3294295197647,285.4828101339398
-729.3214298460739,624.7485124889744,281.4783845655754
-709.8907374077795,647.8114340778961,281.6915052540878
-725.5219672365181,616.9813340947214,281.5609815788266
-718.1973456786977,620.6880025288963,269.8842112240164
-709.9998470425681,632.3372405459561,281.74147134852376
-717.3254883166015,647.9399183207314,289.42911187816435
-706.5827780128791,647.6452203351809,266.04294024972853
-737.2476839695514,671.0956340850342,265.50453008927616
-709.9723147048177,636.2060438579944,281.729234753968
-717.7884394772935,640.0993203591441,277.67484309116776
-713.0895871678912,644.1435148598146,301.27923398918085
-705.110307801339,663.4620385146815,305.2581666522207
-710.053892001856,643.9089801308296,277.77783442867855
-698.4943890115381,643.8192451040876,277.95118618488476
-702.9474897136128,655.2849342028114,258.2227366124008
-702.9199573758624,639.8433715896867,262.1996298430147
-703.1932413209405,639.7750506034172,254.3467952868717
-699.421311049135,628.139068897126,254.4426486108916
-714.4254154068924,628.3613670315551,265.99093472286665
-710.2180663121454,640.0055064675502,273.86314388705625
-709.8907374077795,647.8114340778961,281.6915052540878
-705.8740752448595,651.6853359709994,285.66329990363687
-717.1888463440625,647.9735689557597,293.3550192981294
-698.7666532404033,663.0602703267681,266.10820208735913
-709.4818312063753,647.914425415407,293.47126694640883
-698.22110506646,643.8875660903572,285.8040207410278
-701.7748160686882,647.8552818750543,293.5864948784754
-694.5858167671938,651.5272799579878,277.98381710370006
-690.9515481841405,659.1669938256184,270.1625937501594
-702.7843351195363,659.187388149878,262.1364074378101
-698.7666532404033,643.750924117818,270.0973319125288
-698.6575436056147,639.9167911570211,274.0364956432625
-706.6918876476677,632.1700070870278,266.09392606037744
-717.8700167743318,628.4939301392424,277.71257259104794
-729.6212264126895,620.8113881906665,273.6377866039881
-733.202469752668,620.9092809471125,281.43249733599146
-728.7758816721307,644.1945006704634,293.19492385269183
-701.5565967991109,640.1859962372473,301.4648223399428
-721.5328374113485,655.6041053774736,277.5657334563791
-694.3686172138295,663.1673405291308,281.8719950237849
-694.3686172138295,663.1673405291308,281.8719950237849
-705.8200302855716,678.7322888040259,281.6476574569298
-709.9458020832802,659.3841933789828,277.72684861802963
-702.3478965803818,663.1591827994271,273.9029128193624
-713.9624642462003,636.2009452769295,277.74520350986325
-710.2721112714332,632.2689195596867,273.8886367923807
-718.1698133409473,624.5568058409345,269.8719746294606
-714.3713704476045,636.0989736556318,265.96544181754217
-716.9430947367348,644.173086629991,301.2211101650411
-721.5603697490989,632.4259558564852,281.5681195923175
-724.4594229425952,632.6951609367114,308.9964462889978
-717.2428913033503,640.2369820478962,293.3805122034538
-725.3047676831538,628.6213946658646,285.4501792151245
-701.7748160686882,647.8552818750543,293.5864948784754
-714.6446543926827,655.3399988783123,254.12245772001657
-706.7194199854182,666.9209159091025,258.12688328838084
-713.7167126388728,651.7098091601108,281.6211448353924
-695.2139619543881,659.093574258284,258.3257279499116
-706.3920910810523,655.4164775942855,269.9443744805821
-695.5678034802914,647.4188433358996,250.51062289364873
-709.9723147048177,636.2060438579944,281.729234753968
-701.7197513931874,636.2825225739678,297.55115151453356
-709.126969964259,640.2798101288412,305.2755018278413
-709.6725181382022,640.1431681563022,289.5698327155553
-721.4512601143103,647.9011691046383,281.51815349788154
-721.2055085069826,644.1006867788695,289.3832246485804
-724.9499064410376,640.2961255882489,293.2652842713873
-710.9277887963781,655.2757567568946,250.25365440797827
-721.3961954388095,636.3294295197647,285.4828101339398
-706.8009972824564,655.3145059729878,258.1646127882611
-714.262260812816,651.5731671875718,265.9144560068933
-717.952613787583,655.5062126210277,269.7710227243758
-710.1905339743951,643.8743097795884,273.85090729250055
-725.7687385600588,659.4005088383904,265.7156113453626
-716.6708305078697,663.5517735414235,305.08481489601445
-716.2619243064656,663.6537451627213,316.8635568721225
-732.1939704180328,667.5052132991389,300.91417558493475
-746.2446401166555,667.9661250274049,339.9478925015169
-767.893215318177,722.5800859620769,370.8361163088313
-786.5071150698761,738.3408197498636,386.20323963840866
-793.4778951017933,746.3088822380732,405.6951150494818
-786.0696568145086,723.0032681904627,401.9598945613436
-808.5360444188383,719.4832078232629,421.25802389195087
-800.7739646056503,707.8523246980366,425.33790846007565
-775.1627722004966,668.6829855251285,394.45682266625204
-762.8935467259462,653.3240199252549,418.24068361774926
-751.0056951150495,641.7308662999088,430.2315265661567
-731.9828891619463,587.4544314317326,434.62446401166557
-700.254419195138,541.099152105969,470.5776182488414
-717.3122320058329,545.6644215914712,533.10049813137
-645.7709819357274,680.8420816486772,569.0373369091383
-600.0469069457971,645.5976301795212,561.9921175936737
-592.475514064436,587.575777661077,570.1508670137101
-564.4904223154697,518.1065909357427,613.9752106988626
-556.8649844748207,506.44103745927515,614.1281681308093
-508.02363702181685,463.25911498829885,587.5329495801319
-456.5840526581453,454.48955555668863,517.6905467208477
-450.776768825236,391.16619844697226,364.9309397194761
-408.95718721479824,193.7399621685285,389.77122666761846
-496.05624754630793,44.19348095425044,463.53851723065475
-568.0186404123733,68.24481346841175,493.7761620940893
-623.0975919401632,281.77920084840395,527.5522222165572
-634.8610381730765,472.0470293117426,593.4534219126818
-717.2479898844152,566.9826087399878,752.8085533795945
-784.0475595641734,641.5371202194431,810.4255785614864
-800.8545221864756,733.9927498177258,750.9924388042808
-746.8156811959233,721.0168610075817,645.8811112867289
-668.7278530384995,665.6136397240649,576.5944537635177
-711.666063334574,477.5667531725921,710.0222807992536
-753.480546363947,443.2808349436353,733.059709482851
-814.3198747788492,540.5087364186547,735.7446222716219
-861.0269561980901,610.2634436836229,707.3373680104828
-907.7330179011183,680.0181509485911,678.9301137493436
-913.658588814733,675.6660021516012,619.9874574905805
-894.4104255785616,647.4830854573173,514.4060407988458
-870.6530772486018,596.262740079436,432.51773031565324
-828.3909388017315,533.1168135907777,331.32313277214956
-795.2369055691802,528.6045693483504,288.6643247184309
-757.7388812693429,516.4607689679963,261.7948025064625
-734.6718808155691,508.54573172286155,262.16699892419945
-687.2581360607344,520.0685249295121,294.23503438992935
-691.6847241412715,516.0926514151113,278.4834780480592
-659.9022092151755,535.4030173402743,302.44273018818865
-597.2661408330063,577.6539389088018,322.8615276368587
-567.3660220360674,600.3548612421164,291.8356421407923
-518.1718527733732,626.7746886041615,261.0860997384428
-453.37296630347777,641.539159651869,238.4596166886756
-426.1251293764946,641.3994585306909,246.71727858137083
-406.8586112484896,641.2505799635962,247.00687798585656
-378.11077177221586,622.176788199844,302.4457893368276
-359.27967246715247,618.0571346994133,290.967863643548
-355.53629424931046,660.4803883079339,279.10754437040174
-351.68380639667987,718.3788551646078,267.19623928660656
-368.05331076361455,756.8772210693766,231.49903381888825
-383.4408284174514,818.7933698051833,219.28589273605155
-411.12714331601524,930.8183732467255,175.32286764593417
-436.9218846395049,1015.2886051811782,80.46019792691695
-422.98134429188366,1037.9691331902334,33.49706576659716
-405.05065440287973,1060.6578189289921,-9.481759826240358
-392.0635487143928,1044.4851197911623,-75.95121677637114
-436.4415983031923,1013.4153864979377,-127.53080817608462
-433.56905773123344,989.9690516129363,-150.95674873682657
-435.7226983730428,954.6715749007053,-205.81442184640017
-453.5636532353047,938.7334104918602,-272.7465546338454
-413.79370121295244,933.8877190477891,-346.70249269628266
-392.85382877945074,913.8523348951989,-405.1903555240577
-360.16274670759134,862.8808002732842,-451.6241529982206
-329.825169655285,850.9338051220348,-462.9032340299695
-280.30265177201187,846.5418873927388,-477.84513569873513
-237.58775932657946,834.7111398897688,-465.39134158963566
-195.82630154028138,822.640759076749,-480.4239980013563
-195.9619237966074,803.2967425165577,-480.36077559615165
-177.2939790856205,775.9642691438974,-491.76222257345785
-181.63797015290646,744.9761131477111,-499.57222904865586
-189.86198141057346,710.1487256096628,-507.4271030372248
-181.9642793410594,679.2421469105149,-495.4311615077525
-193.82357889799272,656.0843917137861,-499.4549616841633
-177.97311008346378,640.6275333574666,-483.46683118088237
-209.40076376744352,632.991898354688,-499.610978264749
-218.28045255005534,621.1713480138478,-531.1008346377204
-272.27442602723664,608.9938969984654,-641.7573789214463
-282.21665910377146,581.4595198156353,-700.6827000045888
-354.2789841587087,585.1794445605789,-780.2674715626642
-387.50643695859446,592.5397561858535,-851.4334660663939
-438.74819637694833,642.8433766882678,-895.5412908587542
-484.36316173209,693.562021689364,-888.5460376377256
-529.2153793599242,775.3677351593053,-865.9460672094957
-548.3758470017794,868.2292118103533,-882.245211157735
-559.6100605201573,895.4342206563914,-878.5803510882923
-533.4543396572734,914.3295620828724,-905.7251966777646
-506.4522543376179,898.6809970785132,-901.3434761105985
-492.2098779909552,828.7539577735517,-920.5172000632224
-476.3849020817507,751.499237762131,-892.547404057451
-456.8981252517425,705.063400855542,-876.4001978249454
-432.9052224765848,693.5181738922059,-848.5293142918326
-423.6696527356437,659.0843968123671,-797.2549239546635
-402.7930027073466,636.1683143581141,-745.8449113611682
-401.72943869721064,593.954102573254,-706.4400177430622
-373.77289900220774,578.5441511627315,-674.571846655076
-356.5315372731769,586.6070472587479,-623.3209097908052
-347.7334257876033,567.5118414545233,-587.8031743765711
-332.9465209832104,555.650502465164,-603.240658124844
-316.1415977933342,540.4322577026815,-559.7660771007429
-308.5171796688982,548.076050435164,-563.6022494939659
-281.3244074174157,540.1987426899094,-555.3190946959462
-261.1850122111017,547.9924337056998,-531.4964845283558
-268.4005241341335,540.451632310728,-515.8805504428118
-248.12448695528036,528.9706474688095,-484.1408635976608
-251.05005277031404,525.3710492369974,-456.70030030642477
-242.9065990934723,529.2826806299807,-444.81754727659296
-249.74073715285041,517.9750475442685,-417.40961490417226
-246.29613578541097,498.5331382276313,-425.14212294718385
-239.38042042899463,482.8284888315583,-444.60850545293255
-240.85187092432182,467.01167065205755,-483.82373185542474
-283.5942957075046,436.35492242508917,-488.2849902872031
-306.57869914802717,436.56702339738854,-484.7047666634376
-337.4332723203133,432.93683367918715,-485.1554812295738
-369.10667761162074,429.1006612859641,-509.1646994641392
-420.0190686931827,429.2821707718742,-533.4747339815331
-490.4712618478278,390.92554542070945,-557.9489428092163
-525.8350201139024,391.0224184609424,-578.101594326299
-600.9320206186619,394.9778976510837,-634.1849663238721
-699.5314404001367,364.25894673512363,-694.4277607541823
-764.4129238832834,357.1984316764645,-675.7526780297044
-822.2430697536876,392.39495648361066,-684.5864795827322
-872.2020261761154,412.1244257723076,-685.4012328369016
-915.8448603753577,466.2040554113791,-733.3329934279291
-969.4941697725525,509.1769360586949,-734.2813295059987
-987.1729897569506,555.0702839399796,-809.2692203759694
-1016.0289191518001,539.3595162466287,-860.6680160911219
-1044.7196545201473,527.5512025003443,-908.1541606970782
-1057.0480235350503,515.8632152671912,-927.9223792018682
-1044.8522176278343,469.5884935222528,-900.1116589253212
-1047.727817348432,473.72650191451726,-872.6955688231966
-1027.588422142118,462.21084672135754,-844.8828091142236
-1023.703303370672,466.05007826321935,-844.8379416008527
-968.8853991934045,473.5755839149965,-820.4942564484305
-937.8401390892916,484.9780506085157,-816.1431273676536
-894.9345597120323,500.22790657360065,-803.7780485690834
-898.6504055921238,480.9828024860682,-795.9190957156624
-872.4120877159888,453.5565152218138,-811.1322418970801
-853.8532526397905,410.74882860100035,-822.4837227799505
-846.8814528916604,364.16207369489075,-833.9963188244714
-850.8440700952926,348.71745193312705,-834.0034568379621
-853.6064813162498,349.0203076483815,-802.6482030051038
-873.2013480648336,341.3632586051302,-810.7651440604081
-860.5772613481669,337.67902392764097,-779.167197768861
-883.3159131813617,334.09166229038465,-767.7219029943968
-894.712261577603,338.0838512641932,-763.9815839251937
-899.0297400233517,349.58319099794534,-779.7831063614997
-914.0623964350722,365.24501231307335,-772.2117134801385
-925.9227157082184,361.3976230415076,-780.2256631979321
-929.7762232770622,361.42719481168393,-780.2837870220719
-914.9352735133814,357.30244273018826,-795.7457439594563
-933.2748696037894,373.13149750424463,-772.5268057899488
-929.9944425466393,369.09648044949097,-788.1621144835393
-917.8343267068776,376.88099401936444,-772.3075668041586
-901.7115936634835,400.1111490672146,-756.4458811112868
-881.6537757542077,396.2994498631031,-732.5855414438163
-857.0877924673565,408.06901439329437,-693.0103552181429
-845.3365828289989,396.4422101329201,-684.9464394059135
-814.4809899404996,400.0723998511215,-684.4967445559902
-794.7770135571271,384.58596972462567,-668.4504902285694
-771.0023300515468,400.01835489183367,-652.4480836983068
-755.7789867079993,392.12779083581046,-656.1180423488144
-743.5913385304871,384.4727812249851,-636.2866014388196
-713.5280651394718,391.7668112964163,-659.4086665680942
-694.4787465648311,379.9778721581784,-663.0082647999063
-670.6489983837498,383.8385177405129,-643.0412016335854
-654.9892165010478,379.9187286178257,-634.9436351863278
-638.9205284169417,376.1029505488623,-615.0673267629619
-639.3579866723092,410.7498483172134,-634.8141312272795
-645.1285607215513,415.15706178970396,-579.9707341446876
-653.408656370932,430.52010625442944,-599.769544135867
-672.2672880137459,430.771976159035,-588.2783621318189
-663.6608831762121,461.8335517225557,-568.631489856373
-683.2006852492952,461.9130895871679,-576.7739238170018
-668.8237063625194,488.56745167819804,-611.9694289079349
-703.2870552125345,500.47569761335427,-608.6013062564689
-687.7098703430836,504.25986447971536,-604.4561598507137
-683.5290338698741,531.3455665288351,-600.560843917138
-706.7877409716876,570.108038932765,-612.8137539322807
-710.2588549606645,585.681144937364,-605.0690092947134
-686.1293102129678,593.4799345342192,-577.2613481668052
-662.6809358955404,581.7980655983441,-565.0971534621915
-689.3006276353292,574.3714724192257,-553.6967262010983
-679.7673007601985,601.8028582645451,-506.5511668102768
-645.0051750597809,613.1421025528597,-506.0688410415382
-629.1822385830023,613.124767377239,-494.05760376887116
-624.211122044735,636.547648789342,-466.58950813988474
-632.3270433838263,655.813147201134,-482.4746473056549
-637.9885077982798,656.3862277128277,-423.6920864923293
-661.6826337230349,671.8685789744715,-443.72237206385466
-671.4443770298727,714.8904060000102,-400.8433053081328
-690.1663667001475,715.1759265396441,-385.4262158841195
-701.3169634890611,715.367633187684,-373.81980594800467
-688.7479414478952,742.5644843040183,-350.1756461176855
-703.071895091596,762.2664212549648,-322.98389358241604
-737.4261343068225,789.6498804382742,-319.6667567415989
-741.6345031177824,797.3140674950162,-331.5291154471711
-729.7466515068857,805.0312797948332,-323.52842204014627
-721.3034012634284,793.5706892771742,-299.81492150734454
-736.5532572285134,778.2831038122091,-292.1425767208986
-720.6212111169463,755.1222894668415,-272.2030458923282
-732.1542014857266,759.0808278056218,-272.38863424309017
-731.9359822161493,751.4115421678148,-264.5103067816227
-734.9431253282212,736.205533999888,-237.03201399050647
-727.5369264733625,732.2092661612273,-244.75636430381428
-730.981527840802,751.6511754778646,-237.02487597701563
-734.4801741675293,724.7367857525252,-221.28759566212727
-723.0552737173246,724.6134000907548,-225.04117104209902
-711.0317998501017,713.0538971004371,-209.12340095751355
-706.8234310391418,705.3897100436949,-197.2610422519413
-687.6650028297125,709.0749644373972,-200.91060657818932
-679.6857234631603,689.7747956743639,-188.95239454859714
-668.9154808216874,674.0395547919015,-208.36065323020605
-617.5391188632204,681.6986432675787,-172.2953302096027
-597.7810975205601,693.2581462578966,-160.2647183288891
-562.3367816736603,704.7676831537784,-140.1497963116865
-512.1055610223675,743.0335537619882,-143.45061769309604
-469.03682705103176,781.4962295993025,-131.16201761049902
-441.4361683143582,793.0312594005089,-115.08823094532794
-426.0221380389838,812.2212988125406,-118.84690490636457
-403.14684423324996,796.5339845920881,-122.37614271948118
-404.5367174315389,773.0132104235391,-157.63894908047092
-405.0812458892691,734.2578760331,-165.3663585424177
-375.0169527820408,702.9332136866311,-180.50812458892693
-360.9101986917041,632.9715040304284,-203.60877567772891
-362.57335583507114,590.0740823828729,-242.735286769692
-367.9523588585297,527.930536931572,-274.00284500823426
-350.4010034007536,438.5279376749451,-304.83600414004786
-356.3245348819424,318.31869190804207,-339.8408222991542
-385.69542096434566,151.8642961663769,-375.0404062549393
-483.39035246490914,-98.75615016340953,-363.8847108849608
-594.8626697190173,-329.53760968322524,-309.8305741512138
-748.9968541754831,-521.4420826683935,-272.24587397327326
-943.2844039503808,-666.114320384637,-180.47753310253756
-1131.6912503250348,-799.7195780414312,-143.60255540882974
-1277.4698801323593,-879.5246083015098,-110.19563255545984
-1368.397974843601,-890.00627125471,-64.42658808053719
-1459.7645475264237,-807.9119780964959,-50.37367500624577
-1511.0460758770837,-640.7641753300057,-8.534841153706925
-1573.768820137356,-438.74207807967053,29.090158208970447
-1609.387507456675,-261.06060683311836,-34.83656498396497
-1608.6227202969415,-114.11746111057295,-43.170195734527084
-1614.3637225760074,-14.150805830737308,-118.16063589503042
-1565.4683301637156,27.64205921492049,-160.74092580034977
-1516.5219519407751,19.244084371319463,-191.3762599868457
-1462.4362040044257,-19.75710359806866,-178.6603988110109
-1425.971152228335,-63.05527371732448,-228.9884925025366
-1408.3096674195574,-136.98357747039,-259.87161772878613
-1394.7474417869507,-207.08192909913174,-298.67793792987413
-1328.0885929445838,-281.67009121361525,-360.2218902479441
-1233.407942569583,-286.69321327874457,-405.8817231164567
-1107.8604824277404,-284.21734231363416,-451.10511744581487
-1053.7951288156507,-269.1581732803761,-450.3464485833593
-983.32050190432,-207.62339840822304,-429.8746258916144
-979.2487750658992,-176.70356339830627,-429.91847368877245
-932.1633789316435,-115.05865917515156,-417.64720878179605
-888.0045683286342,-18.39404893618106,-385.91465995013596
-871.4474361785117,66.73563347320442,-370.2548780674339
-847.2638464715271,82.27141786440835,-342.4727098448502
-837.2665487194914,117.54370758617877,-283.5728816670321
-823.6890273436902,152.71779863663943,-232.46878393743023
-841.7288268674829,153.17361178384056,-197.4180785487399
-832.7675607878328,137.9818796428954,-157.9866723090964
-815.7984632876671,107.35776233474226,-106.60929063441645
-823.6686330194308,103.51445192802845,-110.63920910810522
-810.7467891685744,181.00472638464717,-87.15901964483285
-846.4195214471813,239.94840235962334,-17.249009600628145
-874.1659996023108,271.8543029474897,64.64480735011448
-903.6561924816325,229.94702574273583,111.4396863352929
-945.1158142688892,149.40779980931308,154.26164898308804
-963.8908291822388,64.71812494582758,185.66279004553036
-965.6722734063112,88.43906940698405,240.50108854705738
-957.7847684989268,197.55472052127894,334.44142495143603
-956.5131823813434,307.00290109262596,459.6799110807463
-947.1277143570945,474.42296808798113,584.8429382102962
-907.557626712486,524.5899466178563,604.8895392412293
-922.6300520565128,218.7077136432931,566.4492971606003
-1075.9433649615312,-449.9977056385208,503.61540383311336
-1236.456894046387,-986.3378421785219,94.85950859875697
-1237.660159177701,-1265.8145238180216,-437.96403460916827
-1194.3426144503987,-908.624249871261,-261.91206987095495
-1232.989858922262,-104.9532715045403,13.445774041084368
-1304.8900490993358,518.827530298318,477.294488943727
-1420.3117272463076,604.7294437957917,463.5018074469875
-1626.0088817282153,320.15724024004123,477.07932882278874
-1650.3902963805174,51.55593398357238,273.53989384754226
-1851.0806442567034,-322.4536411516675,672.1061728520953
-1991.597538405062,-543.8279126918978,886.6024585357895
-1874.1466249942644,-642.7974894586837,739.5604003405853
-1806.1315535886365,-60.52413413347067,581.6298124232027
-1650.9613374597852,336.31974221574137,531.5953970010147
-1429.5911447844067,381.27495118108635,130.52367526117484
-1487.929109328874,410.490840399117,-113.77483646301236
-1385.5699958701496,304.9920207206335,-139.3584965304156
-1107.2996385106026,148.579790244375,-79.71784452386902
-956.8323535560054,179.35686498447484,32.3216388878975
-801.4928645357998,231.66116869675173,391.6128341482566
-521.045413061545,96.8498926748686,-157.1035980686575
-879.3012904508676,283.1486797224333,25.28355758592384
-773.0560385044843,233.68938424436485,211.49933973375212
-772.7389067622481,323.588585296712,313.2405051674119
-833.040844732911,502.1755645403885,759.1420107784004
-768.0206798447994,163.44521319716725,149.01724849974255
-1056.5381654285613,197.5669571158347,-181.16278239765876
-1172.5818704654496,77.7600913665727,162.87009325304768
-1122.942085217684,314.8271835948056,323.72318783682505
-1048.380435724738,479.66328970647476,218.3192017661485
-1061.0962969005727,515.2167151881632,288.65208812387516
-900.584807248143,305.08991347707934,295.68914970963584
-688.6531078400882,308.3101772776636,408.7430468100728
-510.5178628787609,637.4154272865862,590.8327512453285
-658.7020032325005,263.25503612344687,-273.5409135637552
-1056.7319115090272,401.32665079308435,104.644297492008
-984.9622450072145,387.94185578153605,400.1111490672146
-877.5575757266754,471.9460774066578,370.0397179464955
-945.3411715519572,619.6305568160382,384.2239704690185
-1023.6421203978934,600.608770579148,351.7184767479211
-896.5966971391863,401.6417431028945,279.7254923954664
-863.3345739880592,431.9130386013573,233.0255489897162
-890.2010370513887,486.2149663748579,224.59045647596275
-789.519356763013,439.22236441598307,249.804979274268
-791.2457363115847,451.37126337740216,308.6079344118532
-880.8125098785009,518.4696099075628,377.68249096276514
-880.3750516231335,483.82169242299875,397.4292954270827
-763.4523512106582,393.44016560191307,344.54069432476945
-740.4139028108478,439.58334395537725,332.9567181453402
-737.2599205641071,372.7297293163313,215.49050899134772
-694.1626345388079,357.13215012262094,239.73630138732395
-889.6636466071493,491.2085166698108,350.1695278204076
-983.9578245374314,627.631250223063,379.6943910509705
-879.8325625978291,619.124777574401,385.20697689832923
-821.6761075392719,591.734180377601,401.8691398183886
-824.1111898558632,619.1523099121515,437.0615857606828
-796.4279341059384,622.9844034405226,457.0867727511434
-751.7133781668563,599.0730779624032,418.59146599501366
-712.5144672237717,512.9835366817415,344.90065414795066
-724.4553440777432,458.9110450561609,344.9047330128026
-790.5360138273519,416.79166687910754,336.20757343231384
-687.4998088032102,330.7745254495674,326.267379788205
-719.15689863511,451.5201419444969,388.1794496591599
-873.6326880229234,584.9265549397604,459.9837865122137
-758.2752519973692,607.1431120719104,449.86208338219484
-707.6351251446723,606.8932815997309,466.32030305965856
-765.1369223944977,591.9676953903729,477.28327206538427
-785.3854272356004,568.6987911264296,453.51062799222984
-745.5859034430719,490.4834984423835,395.5010120683414
-747.2215282486885,451.45488010686637,356.36226438182257
-773.5414234218617,467.2747574350059,371.6131400631205
-695.354682791779,470.8213304237432,404.1696195948668
-640.5326997496597,420.41981716488306,440.48171393901083
-709.3768004364387,436.5323530461473,451.1703792834455
-792.708009360995,487.7547378564546,481.1459570801446
-721.601158397618,503.10350629419844,529.2551482922304
-747.013506141241,525.8788679110604,458.1544156261313
-765.3979697450201,471.1863888279892,383.4958930929523
-735.4968312318683,416.6489066092907,368.4295860462034
-796.2535626335192,467.5551793935748,383.04619824302904
-777.1226667618403,486.6819964004018,375.4187209699541
-725.0549372109742,451.03679645954537,329.223537089628
-730.9081082734676,463.14694620487126,380.11451413071745
-778.38609514972,525.9808395323582,441.9857953531532
-714.305088893761,560.870429759398,505.62220534025386
-710.2598746768775,549.3027690393765,513.5708932204168
-656.82878454926,494.6898278209175,510.6310513784014
-684.3478659888954,475.45186174687586,498.5096847547328
-715.7755196728751,467.8152070278842,482.3655376708662
-682.5103373731091,401.5397714815967,455.6153222558163
-673.2849647942978,391.272248933122,612.7729652837616
-826.7267619421515,460.15917770084593,394.38850167998254
-785.7545645046984,393.8235788979927,367.75351419699905
-678.2234504137499,502.0287254057196,447.49124318702115
-691.7040987493181,641.6615255974264,474.29040498029406
-770.4629001748814,595.4897951899987,434.02079201358265
-681.9403160100545,482.7836213181872,455.35019604044203
-712.1126990358584,479.32372420755314,474.5330974389828
-723.5539149454708,393.4840133990711,384.38508563066904
-706.0596635956214,392.8905385631179,333.62871112969265
-778.2678080690144,478.67110583124725,344.0318559344935
-828.7825098275151,599.6675725145692,417.4340880932837
-790.1118118827532,599.404485731621,421.9391943222202
-831.1635471848186,596.2046162552963,460.58134021301873
-906.1514380547894,577.0166162756906,412.4272814875621
-814.094517495781,470.9273809098928,312.1239159142011
-790.80929777243,436.03269210178814,324.36458933478815
-913.6830620038444,440.95690169425853,334.2813295059985
-890.5079716314951,429.20569205590084,338.5926896544692
-846.9650696211245,393.4146726965886,268.7227544574345
-888.4002182192697,432.60032732890437,287.5926029785911
-911.4111342813295,409.6352984964285,295.175212738295
-883.1721331953318,331.5097408391245,236.99224505820033
-717.9811658415464,193.9398265462722,141.81499288747943
-732.4774515252407,291.83258299215333,259.00587866396785
-925.7340682088177,429.337235447375,322.36594555735144
-826.7338999556425,330.7215002064926,198.59381134230347
-653.9001595855874,267.4481091912121,197.47110379181478
-832.8440395038062,486.6534443464384,323.5641121076005
-1049.3593632891966,585.6842040860029,390.6298277189458
-1012.9198044184305,461.2788261026957,356.27354907129353
-874.11093492681,355.9574370452703,382.2559181779711
-953.6987656335242,430.2937292551483,404.36132624290667
-1036.0112780613158,446.016733543055,359.9037387894949
-928.0508634447034,332.20824644501437,275.56403053030346
-870.411404506126,269.9311181698134,284.48654739386035
-878.8821870873337,296.8322515843841,256.7961536304447
-903.4838604416393,286.0497723483555,327.1076259476988
-867.2757771512189,328.6463777130825,362.82726517210267
-796.2780358226306,328.5209526188862,410.98744219483723
-865.285291103486,340.73103455308393,417.76141699764963
-915.462466795491,329.51211677790076,417.047615648565
-916.0620599287219,340.9472143902352,397.3772899002208
-939.482901908399,356.49788663814866,385.1998388848384
-982.9625815135649,356.5509118812235,353.1511780271551
-815.1315688843796,20.693814911310184,152.71779863663943
-585.3935849653043,-132.07466362111427,144.90065414795063
-889.7044352556685,208.28315479801972,296.1786134918653
-971.1838395374568,368.10225714183747,357.21372741965916
-912.454303967206,344.7171052296147,389.5693228574488
-897.2330000560845,414.0649457256047,369.9397857576237
-854.5089301647353,397.3772899002208,272.52017763456433
-646.2278147991415,229.75735852712194,315.4522696333611
-881.6517363217819,244.06397699520227,409.9932188871838
-869.1816267532746,154.3819754962194,343.7636705704803
-590.8684413127827,165.03902963805174,481.3335848633326
-731.7422361356835,453.3444142495144,580.2909250355627
-965.9792079864175,566.3646607149232,466.5120097076984
-1103.0882105510038,501.1935778272907,413.65807895662647
-1029.4748971361273,279.6021067336961,360.56349517929164
-866.4742802078183,204.26955178373862,300.46550045122444
-639.6812367118232,19.867844778798062,214.2179031575513
-731.1956682455274,261.25945149464906,302.2989502021588
-986.3113295569843,608.7277510668781,426.8185364013196
-876.4797356895577,689.4800976888133,467.43689231286936
-770.6902968903755,665.9430080608568,524.045418160126
-868.7808782815744,694.2768427546615,577.4255224770947
-934.4526418297789,632.9511097061688,584.4982741303096
-901.230287610958,399.6063895417906,479.81828657084736
-475.05009355896254,-146.7453207772277,331.0600459892012
-537.3353795638674,-42.15557810261405,290.52836595575457
-946.6739406423193,468.6819658089154,376.8646785599568
-861.7948025064626,715.2146757557373,330.20858295136463
-717.1868069116366,647.1017115936636,626.9510995090068
-787.5013383775296,951.49209974864,424.7148618539461
-652.9069559941469,742.8357288166703,572.6461125868672
-336.97949860553814,294.2697047411706,445.4548699097042
-194.63425328731014,99.01852314500876,369.7531776906487
-392.43574513212974,279.8570357869405,515.3156276608221
-681.6864066730229,608.4208164867717,659.0099575288198
-597.9738238848129,630.6700045377372,624.8678192858928
-465.3658486843112,578.8561843239028,572.0842489535163
-482.27886179276317,539.9805234203321,536.6399331066165
-447.5575247408646,326.3214247474928,471.16293535509067
-245.93719567844272,88.51299883242494,447.51265722749366
-348.5379818796429,217.12103521589947,461.24007688660254
-536.202474851249,679.4318141261289,507.89005419791675
-376.0050577924164,817.7940479164648,545.1443663228524
-455.0361234468447,732.9342843886548,505.0001784503373
-310.0467539883651,584.6899807783495,495.89819153329637
-92.42320262271011,360.36465051776094,264.43790693050124
-151.51555322153845,511.22554593056765,639.8076815222324
-52.06742363600211,352.923781311661,763.4941595753903
33.56599858259447,578.3442867849878,520.6895321032158
106.12594514946491,620.0945276929432,494.1636542550209
137.44041033380412,939.6440170700495,776.1274237379738
793.2953658996702,2148.78679263561,2002.4269245868877
805.7909683735018,2310.8808818505813,1107.2588498620835
1042.506870337985,944.2357991770892,1217.4493838364785
847.8858733614437,470.0973319125288,811.9011079216656
276.8651884180633,986.0880117063423,899.7221273319635
210.84672135744623,966.1596977561146,777.1369427888219
-154.05668602427946,730.7164016254277,521.2901449526598
-241.51060759790553,569.4962092049783,587.2423304594332
-38.68935875145947,404.4918499181678,916.5810954811277
-150.8119490345837,727.6684698648367,615.5394553695708
97.21617473857027,893.1755492446453,736.4349701478079
-51.978402410609135,913.9186164490422,761.6025860003163
36.54081669071498,974.9965584577814,747.0247230195837
1.0435979666858715,878.5120301020227,742.8938526408102
76.37103394125417,707.5566069962731,728.900287050114
215.56188912625618,598.4694059643201,766.6746544436684
262.59324030122417,613.7580111454982,786.9506916225215
241.7339254485477,703.3278438610536,833.4313960424815
221.1040467437912,664.5154053626877,801.8569032238329
272.7781658364478,772.6583491814229,825.8130962153233
325.05391749476127,850.0558294626607,873.4307842127536
325.1079624540491,857.7934360867371,873.4052913074293
336.7775947953685,873.1789143081481,873.5286769691996
227.46503648034755,750.0767336450267,856.6075061310438
137.63721556290886,638.4657349859535,843.8651323336716
113.48319762610066,530.2514110323098,836.0184160748064
95.65947596783816,600.2763430937172,862.9878704756468
163.48294269704743,774.1369376902409,894.814233198901
180.3939163730734,890.2499834296117,914.2989705964832
132.28778430962663,979.959517266345,952.5220131237477
128.78811826668638,1010.9731661678557,956.2898645307013
215.61797351796997,1005.9755370080508,906.5868568777311
405.8378753192987,965.2531700427771,846.7794812703625
710.7065103781619,923.3989180810981,761.2212121366624
930.5797596528888,947.7966481928081,654.5436005159764
1064.8896412128506,957.2025105413165,527.010752907466
1199.6553359200136,877.9022398066619,431.1819020766521
1243.1156409171329,791.8861180933347,369.32897574604993
1218.2243681583416,714.3815676097344,333.89587677749284
1146.7932474392378,594.6791208006813,297.9080521890758
1032.4626656401524,382.4884134745301,265.514727251406
863.9300882564384,116.58721377840548,236.4150856816548
712.2054932112394,-164.5322306802017,250.7890054197917
622.7631250223063,-415.07548449266574,277.76661755033575
514.6517924061734,-599.6675725145692,308.16639729163376
458.24211122044744,-652.9385671967492,358.5220233209098
392.83955275246905,-540.4108436622089,337.539322806463
309.8040615296763,-292.15787246409326,335.45808201577506
250.24243752963554,-13.099478415157062,337.54951996859273
178.95815594520047,223.5258727496138,343.5321949901343
190.81541606970782,381.85007112520594,319.62800752550567
264.1381103638858,473.9967267109564,304.71669734312945
333.58180418389566,504.37713184420784,301.7299485553171
334.0998200200885,481.3356242957586,321.43902351975447
257.49465923633454,451.15202439161186,340.0162134877864
227.4578984668567,447.72679763221896,363.12502230629224
254.5690934213009,428.24307995084973,371.4469263204051
340.08249504162995,377.56828274691156,404.2950446890631
584.759321480832,376.1722912513448,462.90935232724735
807.9874370962563,355.0692642237666,462.40051393697144
988.8545017921514,376.78004211427964,453.2618172362632
1045.9433139757207,372.29431049338973,434.5092360795991
990.9642946368027,322.246638760433,414.23115946832
905.3703354356484,284.0766214762432,397.37932933264676
869.7903973324226,214.60437560226993,385.3069090872011
862.8206370167184,203.2630918815294,408.7889340396568
836.636364099871,219.11763956091025,427.96673685713273
724.2483416865088,328.95025314454995,496.55590849066715
633.03370671942,574.2786782438449,592.4765337806489
641.3280783957825,780.044153712022,678.2489433190743
713.6320761931955,946.3078625218603,729.7904993040437
745.9305675230585,1019.8181845992261,757.499247959293
739.5604003405853,997.0387441175121,800.651598660093
716.9583904799296,974.175686906334,820.0129503959049
743.4190064904938,765.2959981237223,848.5864183997594
691.3125277235347,440.77845135698743,856.7502664008607
646.667312486935,139.31056986840565,853.1731019257343
582.589365379615,-50.053892001855885,821.4558488372687
729.7476712230988,-114.7853752300735,635.4963213737618
844.6962010472487,-73.3616474535137,609.6067464424651
896.789423503439,-27.90086318977429,547.4397475182657
883.0446686687096,68.18821921859147,464.4919518897891
836.5568262352589,130.27384478899523,443.96302509011747
801.3827351847982,234.68972584929617,407.763099529401
772.8979824914727,335.9251120413189,454.0898268012013
735.5631127857118,332.6610004435766,488.8631693799616
704.5433455869232,383.0563954051588,472.5303747966941
702.2969107697329,495.48418675082735,495.6646765205244
719.3995910937987,580.7508170476157,527.0301275155125
768.5305379512882,642.9086385258984,598.200200884094
817.7726338759924,623.9949422075837,689.2669770003009
843.1309366603276,554.863281548745,768.3724819382767
913.5851692473987,477.36382964620947,816.7855485818299
921.320736439049,442.553777283782,824.8678192858929
913.153829289309,260.98820698199694,848.9055895744216
843.8223042527266,52.98945103577675,891.7397888167724
861.1819530624628,-5.5664676520524345,849.025916087553
869.3876094282962,59.1548592026839,739.0413647881795
884.8628226764494,100.53586086991992,621.39466586449
807.9293132721165,159.09306440017747,612.1958059072161
686.0609892266983,268.54124497152446,629.6247954194348
674.4454018446667,299.5120657920901,621.4966374857878
651.6241529982207,361.5556790545192,617.0211030270276
550.6171832379049,304.1956223582977,603.9279468523911
477.2149510791147,103.89480607546922,638.8256948091347
352.01623388211067,-22.072369259635046,719.7921818357952
463.68433664911055,-15.232010931357806,717.5171949646414
466.99127632779806,81.14850637067705,681.919921685795
398.0095139522671,135.84659389291963,680.7023805274993
287.37744285765274,121.54201485726524,714.4141985285496
245.12754100533826,44.66601744734441,733.664401197147
240.51128570918718,13.60913257840343,718.0015601658059
274.04465337296637,82.56784936752103,671.1751719496465
103.14531465893042,208.11694105530432,715.2870756068587
-158.0284806738285,377.4143055987519,812.8443454186701
-136.18208052698935,441.5717905706842,652.0452957941806
92.14522798305232,314.48659837967097,487.135770115177
340.4404154323852,215.45787807253242,448.0184364691307
526.7323703813229,196.92249646923264,270.33900465500454
632.946011125104,260.3223322949224,99.03269720036916
659.4443566355484,411.6053902199018,165.6376030550698
775.0261302279577,710.0661285964118,327.2718002579882
923.9801563224955,938.4172984658371,466.0939260603775
923.6630245802594,982.8116635140442,670.0198334803424
1129.4274803322237,850.3138176645441,744.1919513799311
1422.830426292363,775.8072328470987,890.1245583354153
1560.6756639627192,824.7219998674369,856.7033594550637
1498.4321863225466,793.1577042109182,734.214028235942
1284.098035516716,739.1321195311345,562.4275364166153
995.4826571765078,694.1228656065017,467.9895785003034
700.1065603442563,538.4111801685591,534.7330637883477
599.9428958920732,543.0539480862477,533.2177654958625
640.9120341808875,611.8847924622578,478.6537706556266
632.5513809506815,577.0237542891814,466.87298924709256
569.8062029337236,519.2976194725009,446.5041578928585
542.3697185073395,473.0473709166739,442.3253608520749
538.0818118317673,391.8677632015011,446.4592903794874
536.8561129437678,295.01307786043145,431.0687135770116
518.9254230547639,272.32541183788555,474.04771252160526
569.6216342991746,202.5747834377693,506.4400177430621
598.341941437698,179.63320807819187,561.8921854048019
674.2679712236086,93.78962234810054,547.6202372879628
778.3667205416733,23.48600184568635,565.1155083540252
818.5374210357259,23.598884430463006,612.8117144998547
869.395767158,54.29866468161911,629.1689822722337
867.1228197192722,124.23916424059185,660.295819673385
883.2985780057411,174.5162721214686,672.1418629195496
834.3216082964112,179.04483182330358,702.7904534168141
803.1397062197591,186.91806070370617,690.5222476584767
723.3081633381431,168.5070844783897,724.7102731309877
746.9288696955638,136.56243467443014,634.9059056864476
738.7252527621564,13.912906038249558,756.8598858937559
726.9842402859284,-75.86331723881244,658.8712761238547
636.5466290731291,-74.63608877649351,716.3822508195971
694.2656258763187,-28.760381985693385,705.3183299087865
700.2513600464991,94.32935813962975,630.4242529304095
642.0673726501915,137.16100809144817,609.7851967797362
591.8616449042232,218.62001804897702,589.1359434669332
643.7621409961608,333.54611411644146,507.1079318625627
628.1829166942841,407.0003518020935,487.00422672370286
710.8044031346077,448.28560211693093,417.4595809986082
686.0640483753373,534.0162032906243,463.89439818898404
675.863827096919,688.9233326365273,471.06912146349674
683.8410670310453,843.4072797540447,447.1190467692841
717.8404450041554,823.6594555735139,431.99665533082145
686.5504530089277,738.8190666537503,435.73901383245044
677.8349385366054,711.5926437672397,412.15195811005805
742.6348447227138,707.0467488897841,393.5156246016734
706.401268526969,641.2730137202817,361.797351796995
674.9746345592022,614.3270127923399,349.643354254511
698.2578148501273,656.6707285362484,345.9254689419935
678.7445253985816,699.2387818470121,329.79049930404375
699.1837171715113,730.2789433700602,357.4645776080517
691.0137508731322,703.1891624560885,349.58421071415825
702.2734572968343,718.4716493399887,337.9278346836076
706.1820295411787,706.8703379849389,341.94959542759256
680.025288962082,707.2833230511949,365.1042914756824
725.8584735868009,687.5151045464048,358.00808634956894
733.8642655748906,730.010758006047,357.98463287667045
674.3628048314155,765.7844421897387,411.9174233810731
661.0208379008124,789.5948157627734,466.5823701263939
680.0987085294163,723.7466413097236,474.93894449174803
681.0266502832262,662.188412964672,514.4070605150587
680.6748481897489,553.9669509975374,526.540663733283
693.6823482024953,488.5878460024576,581.9010569358549
717.4315388027512,403.60571652909,617.8644083351603
689.5055905941377,287.7180280727874,613.913008009871
704.4301570872827,217.96230109160624,614.371880305711
715.8285449159499,136.73170756578446,626.5901199696126
730.425782504729,59.17025691749986,619.2216506146341
752.4271795159408,132.08690021567,572.2096740477126
731.2160625697869,94.12551686865547,634.8141312272795
721.5746457760806,-26.018976918723524,603.6781163802115
741.7711450903214,-107.03451229522825,647.4239419169645
730.1290450867524,-118.55118720460098,647.2883196606385
777.2501312884625,-57.89398010533669,549.6749654571133
749.7494047406608,-10.478807747803788,635.4443158468999
715.3666134714709,51.65443856974605,630.7954296319335
712.6021628180879,129.1949850356646,646.1900852992613
720.3622031988498,175.4921405372885,638.3015606756641
709.4288059633004,225.94361989058447,645.8168691653115
693.604849770309,264.5786277678922,625.8263525260921
720.7140052923272,322.3322949223232,618.1876583746745
717.4050261812138,361.11822079915163,625.8569440124813
735.3622286917551,406.9840363426859,578.8755589319493
721.7479975322868,430.725069213238,625.6866514049141
712.5419995615222,411.09961097826476,586.3694533811241
720.6028562251126,442.02352485303345,590.3106565442838
715.9040039157104,437.97933035236304,566.7062656462707
724.6195183880327,445.89640702992364,594.2824511938328
701.5810699882223,419.0625748854095,601.8762778318794
712.732686493349,399.5615220284195,594.2600174371473
716.6412587376934,368.6498447482066,602.2719277225149
708.9617759377566,353.2694651078605,606.1335930210623
708.8536860191809,337.79425185970746,606.1845788317112
720.2500344154223,333.8020628858989,602.4442597625082
704.4281176548567,314.5090321363565,594.4231720312238
708.8536860191809,318.48490565075747,610.1737086568809
724.0229844034407,302.85673497065767,606.5292429116977
716.1793272932143,302.88222787598215,602.4870878434533
716.3435016035039,287.47533561409864,610.3909082102452
719.8696802679815,279.6398362335762,602.6206706673534
720.033854578271,264.2329439716927,610.5244910341453
735.7201490825104,264.1829778772568,618.6088011706344
723.9148944848649,248.76282930460457,614.559508088899
720.2796061855986,260.43348136213694,618.390581901057
712.7357456419879,264.3950788495562,622.1890247943998
708.5008642094906,268.191482310473,610.3389026833833
701.0110486251677,279.8917061381818,614.1118526714016
713.3078064374686,287.71089005929656,633.8923077707475
704.509694951895,287.4967496545712,602.364721897896
717.2704236411007,283.8461656121102,637.8895953256209
700.8203616933408,291.4287753718141,606.2202688991654
705.3825720302041,314.7486654464063,621.9086028358308
705.2999750169528,322.4516017192416,617.9572025105414
709.2625922205851,318.5878969882682,621.9534703492019
717.1602942900992,326.3000107070203,625.971152228335
717.0246720337731,326.265340355779,622.0442250921569
732.1654183640693,326.0777125725911,614.4218464001469
712.5705516154856,318.42066352933983,606.3059250610556
716.3975465627916,314.5222884471252,606.376285479751
724.4308708886317,322.2690725171185,614.3198747788491
736.0739906084137,314.4764012175412,618.4446268603448
727.6582727027069,310.49644883828836,598.7090392743701
728.1487562011492,322.2048303957009,610.4510714668108
719.8146155924808,310.5209220273998,594.6668842061255
723.3948392162462,310.4230292709539,586.8711537579093
724.6766224959595,318.4685901913498,622.1849459295479
731.7565121626652,306.66639474234324,606.6322342492085
735.4733777589698,306.60215262092566,602.7634309371703
731.6749348656269,295.05998480622844,606.6699637490887
723.3958589324592,291.1136830620039,590.8613032992919
716.5341885353307,275.9372466642534,618.2824919824814
720.2785864693856,279.742827571087,614.4004323596744
704.8105112347234,272.12452774392887,614.1944496846528
720.1970091723474,287.4457638439223,610.4490320343849
716.4801435760429,287.5100059653399,614.3178353464232
708.3642222369515,268.1568119592318,606.4119755472052
727.794914675246,291.2207532643666,606.6250962357176
697.1850733940745,283.7900812203964,614.0414922527062
719.8972126057319,283.50863954561447,602.6084340727976
705.0827754635886,291.50219493914847,618.0581544156262
705.0011981665504,299.20513121198377,614.1057343741237
701.9655030005151,299.43966594096867,637.6071339346261
709.3727215715867,295.44339810230815,629.8827836213183
705.4101043679544,299.3081225494945,625.8854960664447
709.263611936798,299.2775310631052,625.9436198905846
701.0110486251677,299.2010523471318,610.121703130019
721.096398872194,299.2571367388456,633.9698062029338
720.7150250085402,303.02294871337307,622.177807916057
716.5617208730811,299.1153961852417,614.27908613033
728.2038208766501,291.32374460187737,618.4048579280386
720.7966023055784,295.3200124405378,626.1292082413465
715.688843794772,291.1728266023566,590.7460753672253
731.5933575685888,283.45357487011364,606.7087129651818
727.794914675246,271.9114070554165,610.6152457771003
727.7408697159582,264.17380043134,610.6407386824247
720.033854578271,244.92359776274265,614.5146405755279
727.2503862175158,252.4654188739274,598.898706489984
716.289456644216,241.119036572122,618.395680482122
716.289456644216,241.119036572122,618.395680482122
739.3289247602393,248.64352250768613,614.790983669245
719.2160421754626,244.7186348039341,590.9551171908859
727.931556647785,252.63571148149475,618.531302738448
728.1222435796119,260.40798845681246,622.4327369693015
715.9621277398501,252.62245517072603,606.5781892899207
723.913874768652,268.0721755135546,610.5693585475162
711.6446492941016,264.1217949044781,590.7766668536148
712.2993071028334,279.73365012517024,606.4323698714649
708.5273768310279,272.0602856225113,610.3256463726145
719.9787899027701,275.8057032727792,606.5598343980871
723.8598298093641,279.6439150984282,606.6057216276711
716.3985662790046,275.9035960292251,614.3555648463033
719.8696802679815,260.3304900246262,606.6108202087361
724.3227809700561,268.1751668510654,622.3491202398374
704.2924953985306,256.54632315826507,602.4656738029807
719.843167646444,256.4616867125879,606.6230568032918
712.3543717783342,248.8525643313466,614.3861563326927
712.7082133042375,260.5272952537309,622.2012613889555
726.9771022724376,252.39709788765788,591.0458719338409
716.1252823339265,256.5259288340055,610.49186011533
727.8775116884972,244.89912457363118,618.5567956437724
712.5725910479114,260.49262490248964,618.2743342527775
715.8805504428118,260.32641115977424,602.6267889646311
724.050516741191,268.1068458647959,614.4962856836943
716.9981594122356,264.4684984168906,634.0258905946475
728.0131339448233,283.55146762655954,614.5034236971852
713.2802740997181,283.84208674725824,633.9055640815162
727.9580692693224,295.1232072114331,610.5387670611269
739.300372706276,283.39443132976095,606.8239408972485
709.5368958818761,280.03650584042464,637.7866039881102
720.6059153737516,287.548755181433,622.2287937267059
708.664018803567,291.4032824664896,610.26242396741
732.4387023091474,287.5273411409605,630.2549800390552
735.8833036765868,306.70412424222343,614.5431926294913
712.5991036694488,283.670774423478,614.2719481168392
735.0379589360282,283.32101176242656,594.9860553807875
719.9787899027701,275.8057032727792,606.5598343980871
727.8224470129963,275.7802103674548,610.6019894663316
735.7201490825104,264.1829778772568,618.6088011706344
726.73135066511,256.1965604972137,583.1797810669291
719.8972126057319,264.1992933366644,606.5985836141803
724.050516741191,268.1068458647959,614.4962856836943
708.6915511413174,256.6533933606278,618.2294667394065
712.7632779797383,268.26388216159444,622.1757684836311
728.7769013883437,276.0198436775046,638.0884399871517
724.4594229425952,287.5181636950437,622.2858978346327
719.8696802679815,279.6398362335762,602.6206706673534
705.0827754635886,291.50219493914847,618.0581544156262
701.5290644613605,295.4688910076326,625.8406285530738
712.544038993948,314.55186021730157,606.3181616556113
709.3717018553737,314.7527443112582,625.8926340799356
712.5980839532359,302.98012063242805,610.2828182916695
704.6738692621844,291.3992036016377,606.2783927233053
724.2677162945553,299.05625264488896,614.3953337786095
712.7622582635254,306.88359429570755,614.1964891170787
712.7897906012757,291.4420316825828,618.1733823476927
716.152814671677,279.70407835499384,606.4894739793916
724.4594229425952,287.5181636950437,622.2858978346327
701.5300841775735,276.1595447986826,629.8307780944564
708.8271733976435,275.99740992081905,618.1662443342019
723.8598298093641,279.6439150984282,606.6057216276711
728.6127270780543,291.42571622317513,630.1846196203597
716.5892532108314,283.67485328832987,618.2569990771569
720.2510541316352,295.1833704679988,610.4235391290605
708.9087506946818,287.60381985693385,618.1285148343217
712.3533520621212,287.4712567492467,606.4068769661403
724.0229844034407,302.85673497065767,606.5292429116977
716.5617208730811,299.1153961852417,614.27908613033
716.6432981701194,291.4124599124064,618.2315061718325
720.4142087257117,299.0858244150653,614.3372099544697
708.6364864658167,287.53549887066436,610.2756802781786
731.7024672033774,298.9287881182667,606.657727154533
712.2982873866204,299.04299633412023,602.4422203300823
720.5243380767133,295.2516914542683,618.2763736852036
715.9886403613875,295.1099509006644,598.5856536125997
704.4281176548567,295.19968592740645,598.4123018563935
716.0437050368882,283.5382113157908,602.5503102486579
716.2068596309648,287.4416849790703,606.4639810740672
720.5243380767133,295.2516914542683,618.2763736852036
720.2235217938849,291.3145671559605,610.4357757236162
712.8989002360644,287.6078987217857,622.1125460784265
709.2911442745485,283.8369881661934,629.9205131211985
723.9414071064024,291.2503250345429,606.5669724115779
704.7829788969731,287.5650706408407,610.2175564540389
704.319008020068,279.7244726792534,598.4632876670423
716.4801435760429,287.5100059653399,614.3178353464232
713.1436321271791,303.1167626049671,625.9884874039556
716.7799401426583,291.44713026364764,622.1584333080104
712.6256162909864,306.8489239444663,610.2695619809008
712.8989002360644,287.6078987217857,622.1125460784265
712.407397021409,295.20886337332325,606.381384060816
720.3866763879613,314.5263673119771,610.3603167238558
712.3808843998715,291.340060061285,606.3936206553717
732.7935635512638,299.2020720633448,638.0700850953181
708.8812183569313,303.04436275384563,614.1516216037078
708.5538894525655,295.2384351434996,606.3232602366762
715.7704210918102,302.7792365384714,590.7073261511322
704.509694951895,306.8060958635212,598.3745723565132
713.3078064374686,307.0202362682466,629.9021582293648
731.4026706367619,294.99166381995894,598.8171291929457
708.1725155889117,299.0042471180271,594.5312619497994
712.7082133042375,299.145987671631,614.2219820224033
708.2816252237003,295.17011415723005,598.4704256805331
700.9019389903791,283.7258390989788,610.1726889406679
700.9570036658798,291.4634457230553,610.1471960353434
704.5922919651463,279.79279366552294,606.3161222231853
712.8713678983139,303.04844161869755,618.1356528478126
716.9971396960227,303.0871908347907,626.0466112280953
720.7966023055784,295.3200124405378,626.1292082413465
709.2360795990477,295.4097474672799,625.9558564851403
708.8536860191809,318.48490565075747,610.1737086568809
705.4090846517415,318.61746875844455,621.8963662412751
720.169476834597,302.8863067408341,606.472138803771
704.9736658287999,314.64567410889555,610.1288411435098
712.7082133042375,299.145987671631,614.2219820224033
720.6864729545769,318.4634916102849,618.2009146854431
713.008009870853,303.08311196993884,622.0625799839905
708.3356701829881,302.9077207813066,598.4449327752087
700.8754263688417,279.8570357869405,610.1849255352236
708.8547057353938,299.17555944180737,614.1638581982635
719.6239286606539,302.749664768295,590.765449975272
705.1368204228763,299.239801563225,618.0326615103018
705.110307801339,295.37099825118673,618.0448981048575
705.3825720302041,295.43931923745623,625.8987523772136
705.0011981665504,299.20513121198377,614.1057343741237
705.5192140027431,295.47296987248455,629.8246597971786
700.8478940310912,295.2975786838523,606.2080323046097
712.6531486287367,310.71772725650453,610.2573253863451
700.7928293555904,306.86931826872586,602.2433756685515
708.7455961006053,303.0096924026044,610.2246944675297
700.5480974644757,291.3604543855446,598.3674343430224
720.3050990909231,302.9209770920753,610.3980462237361
704.8105112347234,291.43387395287897,610.2053198594832
709.3451892338363,291.57459479026994,629.895020215874
701.1201582599563,314.6752458790719,610.0707173193701
712.2167100895822,306.74593260695553,598.4898002885798
708.6905314251045,295.27208577852787,610.2501873728543
713.1171195056417,299.2479592929288,626.0017437147243
708.7455961006053,303.0096924026044,610.2246944675297
701.2833128540327,299.26937333340135,617.9745376861621
712.8163032228132,314.6201812035711,614.1709962117544
704.9461334910495,310.7768707968573,610.1420974542785
705.2734623954154,299.27345219825327,621.9595886464797
705.1643527606268,303.10758515905025,618.020424915746
708.7721087221428,306.87849571464267,610.212457872974
701.3383775295335,287.6976337485278,621.9391943222203
708.6905314251045,295.27208577852787,610.2501873728543
716.5341885353307,295.2476125894164,614.2923424410986
701.5841291368613,283.89715142275907,629.805285189132
716.1252823339265,295.1446212519056,602.5125807487776
708.7180637628549,299.14088909056613,610.2369310620854
708.9903279917199,299.20921007683563,618.0907853344415
712.4614419806969,322.25581620634983,602.3657416141089
713.0895871678912,314.6885021898406,622.0238307678974
716.3149495495405,322.22522471996047,602.4238654382485
720.6324279952889,310.72690470242134,618.2264075907676
708.9362830324321,310.78196937792217,614.1261286983834
712.5165066561976,310.6830569052633,606.330398250167
713.0895871678912,314.6885021898406,622.0238307678974
693.4131431222692,295.4260629266875,613.9456389286862
708.7996410598931,310.74729902668093,610.1992015622053
700.9570036658798,291.4634457230553,610.1471960353434
701.0385809629181,303.0698556591701,610.1094665354633
700.8744066526287,299.16638199589056,606.1947759938411
712.9804775331027,299.2143086579005,622.0748165785462
708.8271733976435,295.30675612976916,614.1760947928193
705.0011981665504,299.20513121198377,614.1057343741237
724.1861389975171,306.75918891772426,610.442913737107
697.7571341895551,307.1048727139238,625.7447752290537
697.621511933229,287.76085615373245,625.8079976342584
712.1626651302943,299.008325982879,598.5152931939042
701.0650935844556,306.9386589712083,610.0962102246945
716.7789204264454,310.75647647259774,618.1682837666278
701.3108451917832,303.1381766454396,617.9623010916063
713.7442449766231,310.99101120158264,641.6696833271301
709.1810149235469,306.98148705215345,621.992219565295
696.7761671926703,302.9964360918357,598.2715810190025
685.24317682389,287.64562822166596,602.0751224934102
705.1918850983772,306.9763884710885,618.0071686049773
704.7279142214722,299.1368102257142,606.2528998179807
701.0650935844556,306.9386589712083,610.0962102246945
709.0453926672208,306.94681670091217,618.065292429117
711.8893811852163,298.9400049966095,590.6624586377611
705.0011981665504,299.20513121198377,614.1057343741237
720.360163766424,310.65858371615184,610.3725533184115
717.2153589656,295.4179051969837,633.9249386895627
708.7996410598931,291.43795281773083,614.1893511035879
701.6381740961491,310.94410425578565,625.7896427424248
720.4692734012125,306.82343103914184,614.3117170491453
712.7347259257749,303.0147909836693,614.2087257116345
708.6089541280663,302.97604176757613,606.2977673313518
705.573258962031,303.21057649656103,629.799166891854
704.9736658287999,314.64567410889555,610.1288411435098
709.263611936798,299.2775310631052,625.9436198905846
716.8064527641958,314.625279784636,618.156047172072
712.7082133042375,299.145987671631,614.2219820224033
709.2901245583355,303.14633437514345,625.9313832960288
712.6531486287367,310.71772725650453,610.2573253863451
713.470961031545,310.92269021531314,633.8168487709871
705.1918850983772,287.66704226213847,621.9973181463599
704.646336924434,306.83974649854946,602.3014994926913
701.2833128540327,299.26937333340135,617.9745376861621
712.9529451953522,314.65485155481235,618.0979233479324
709.3451892338363,310.88394099921993,625.9058903907044
716.8064527641958,314.625279784636,618.156047172072
712.544038993948,314.55186021730157,606.3181616556113
712.8989002360644,306.9172449307358,618.1234162532568
709.2901245583355,303.14633437514345,625.9313832960288
693.5497850948082,295.45971356171583,617.8715463486512
704.5372272896454,291.3655529666094,602.3514655871271
704.78195918076,306.87441684979075,606.2274069126563
700.9835162874173,295.3322490350936,610.1339397245747
701.3383775295335,307.0069799574779,617.9500644970506
717.0522043715235,310.82479745886724,626.0211183227708
705.2183977199146,310.8451917831268,617.9949320104216
709.0719052887582,310.81562001295043,618.0530558345613
712.6796612502741,314.5865305685428,610.2450887917894
709.2625922205851,318.5878969882682,621.9534703492019
705.6558559752822,295.5076402237258,633.7515869333565
716.6973431294072,318.459412745433,614.2158637251254
713.0620548301408,310.8207185940153,622.0370870786661
724.649090158209,314.5997868793115,622.1982022403166
712.7897906012757,310.7513778915328,614.184252522523
712.3533520621212,306.78060295819677,602.4167274247577
705.1918850983772,306.9763884710885,618.0071686049773
705.436616989492,303.17692586153277,625.873259471889
712.5165066561976,310.6830569052633,606.330398250167
705.0277107880878,303.073934524022,614.093497779568
701.2833128540327,299.26937333340135,617.9745376861621
701.2568002324954,295.4005700213631,617.9877939969307
700.8203616933408,291.4287753718141,606.2202688991654
708.4723121555271,302.94137141633485,602.3718599113868
716.6432981701194,310.7218061213565,614.2413566304498
708.5538894525655,295.2384351434996,606.3232602366762
697.5664472577283,299.33259573860596,621.8433409982003
713.0355422086035,287.642569073027,626.0394732146045
701.0110486251677,299.2010523471318,610.121703130019
704.7279142214722,299.1368102257142,606.2528998179807
705.1918850983772,306.9763884710885,618.0071686049773
709.0994376265087,314.6844233249887,618.0397995237926
701.3648901510711,310.8757832695161,617.9368081862818
713.1160997894287,318.5573055018789,622.0115941733417
712.7347259257749,303.0147909836693,614.2087257116345
708.662999087354,310.71364839165267,606.2732941422403
704.4281176548567,295.19968592740645,598.4123018563935
708.5814217903159,299.10723845553787,606.3110236421204
704.4556499926072,299.06848923944466,598.4000652618377
720.9872892374053,303.0912696996426,630.0306424722
712.8173229390262,295.310834994621,618.161145753137
709.263611936798,299.2775310631052,625.9436198905846
708.7996410598931,291.43795281773083,614.1893511035879
708.4723121555271,302.94137141633485,602.3718599113868
711.8893811852163,298.9400049966095,590.6624586377611
716.4250789005421,299.08174555021344,610.353178710365
716.4515915220795,302.95054886225165,610.3399223995963
708.9087506946818,287.60381985693385,618.1285148343217
700.6021424237636,299.09806100962106,598.341941437698
709.0178603294704,303.0780133888739,618.0775290236728
716.2068596309648,306.7510311880204,602.4748512488975
720.9872892374053,303.0912696996426,630.0306424722
724.649090158209,314.5997868793115,622.1982022403166
712.7622582635254,306.88359429570755,614.1964891170787
716.1793272932143,302.88222787598215,602.4870878434533
697.2666506911128,295.3954714402982,614.002743036613
712.4349293591595,279.7683204764115,610.3582772914299
705.0011981665504,299.20513121198377,614.1057343741237
704.8920885317617,303.03926417278075,610.1665706433901
712.4624616969098,302.9454502811868,606.3558911554915
716.4515915220795,302.95054886225165,610.3399223995963
705.110307801339,295.37099825118673,618.0448981048575
712.8438355605635,299.1796383066593,618.1478894423683
720.3866763879613,314.5263673119771,610.3603167238558
717.1062493308112,299.2530578739937,629.985774958829
723.9403873901894,329.869017452443,598.5876930450256
720.3866763879613,314.5263673119771,610.3603167238558
724.0219646872276,322.1660811796078,602.5401130865281
719.9787899027701,295.1150494817293,602.5707045729174
712.7622582635254,287.5732283705445,618.1866386584614
701.0936456384189,272.18775014913354,618.0632529966912
689.6147002289264,264.57454890304035,621.8413015657743
685.516460768968,249.09525679003536,617.9082561323185
686.1160539021992,256.96848567043793,633.5884323392801
685.6796153630445,272.30705694605194,617.8317774163451
686.3332534555634,287.918912166744,633.4874804341953
701.9655030005151,299.43966594096867,637.6071339346261
694.5847970509808,326.61510301683046,641.3301178282085
701.1742032192442,341.7221987120985,606.056094588876
704.972646112587,333.95502031784554,606.1397113183402
723.8853227146885,341.4417767535295,594.6230364089674
720.032834862058,322.16200231475585,598.5550621262104
735.7731743255853,329.8486231281835,606.6148990735878
723.6130584858234,322.063089842097,590.7603513942071
743.5352541387733,318.21672028674425,610.6947836417127
731.6749348656269,295.05998480622844,606.6699637490887
724.2412036730179,275.87810312390064,618.3977199145478
727.5491630679184,275.71188938118524,602.7491549101885
708.3642222369515,248.84746575028174,610.4021250885879
704.3200277362811,260.41512647030333,602.4524174922119
708.2275802644125,268.1231613242035,602.4850484110273
701.229267894745,272.22242050037477,621.9901801328691
701.7207711094003,283.93080205778733,633.731192609097
685.4338637557169,276.10753927182066,609.9667062656463
709.5634085034136,303.21465536141295,633.7842178521719
697.4022729474387,314.7394880004895,613.9395206314084
705.2999750169528,322.4516017192416,617.9572025105414
713.1436321271791,322.4261088139171,621.9993575787859
709.2350598828347,334.02843988518,617.9765771185879
697.4298052851892,318.6082913125278,613.9272840368526
708.7445763843923,322.31903861155445,606.2345449261471
708.9903279917199,318.51855628578573,614.1006357930588
716.3700142250412,329.962831344037,602.3983725329242
716.9430947367348,314.6589304196642,622.081954592037
720.5233183605004,314.56103766321837,614.2872438600338
712.3798646836586,310.64940627023503,602.404490830202
716.5617208730811,299.1153961852417,614.27908613033
708.6364864658167,287.53549887066436,610.2756802781786
723.913874768652,287.38152172250466,606.5802287223466
708.5273768310279,291.36963183146133,606.336516547445
700.7663167340529,283.69116874773755,606.2457618044899
708.3632025207386,287.46615816818183,602.4218260058227
701.1476905977067,299.23470298216006,614.0486302661969
700.7928293555904,287.55997205977576,606.2335252099342
709.0994376265087,295.37507711603865,622.0299490651753
697.2666506911128,295.3954714402982,614.002743036613
721.2870858040209,307.0283939979504,637.8712404337873
705.9821651634352,322.62291404302186,637.5897987590055
705.2459300576651,314.71399509516505,617.9816756996529
701.6646867176865,314.8129075678239,625.7774061478691
708.9627956539696,314.65077268996043,614.1128723876145
712.7897906012757,310.7513778915328,614.184252522523
712.5705516154856,318.42066352933983,606.3059250610556
705.2459300576651,314.71399509516505,617.9816756996529
712.7071935880246,318.45533388058107,610.2318324810205
697.4573376229396,303.16774841561596,617.9041772674665
712.4624616969098,302.9454502811868,606.3558911554915
709.2901245583355,303.14633437514345,625.9313832960288
697.8672635405568,283.9603738279637,633.6740885011702
716.8615174396966,303.0525204835495,622.1196840919173
731.7299995411278,302.797591430305,606.6454905599772
700.7928293555904,287.55997205977576,606.2335252099342
709.0178603294704,283.76866717992385,622.0676785650554
712.3533520621212,287.4712567492467,606.4068769661403
716.6157658323689,306.8530028093182,614.2546129412186
724.7316871714603,306.8968506064763,626.1496025656061
700.7112520585522,295.263928048824,602.2811051684317
708.9087506946818,287.60381985693385,618.1285148343217
724.0494970249781,306.725538282696,606.517006317142
701.0926259222059,310.8064425670336,610.0839736301388
689.7778548230028,307.0956952680069,617.7756930246313
701.0926259222059,310.8064425670336,610.0839736301388
708.7721087221428,306.87849571464267,610.212457872974
692.7034206380365,310.695293499819,590.3351297333952
708.6905314251045,314.5814319874779,606.2600378314715
705.4916816649927,310.91351276939633,625.8477665665646
716.7789204264454,310.75647647259774,618.1682837666278
702.1561899323419,326.5212891252365,637.51943834031
705.3550396924536,310.87986213436807,621.9208394303865
701.2017355569945,306.9723096062366,614.0231373608725
693.9862236339627,299.4315082112648,629.6390714464166
702.428454161207,307.28026390255593,649.3624224378357
712.6256162909864,306.8489239444663,610.2695619809008
701.2557805162824,314.7099162303132,613.9976444555481
705.3550396924536,310.87986213436807,621.9208394303865
701.9104383250143,311.0124252420552,633.6434970147809
716.2068596309648,306.7510311880204,602.4748512488975
709.126969964259,318.55322663702697,618.0275629292369
716.6973431294072,299.15006653648294,618.206013266508
704.9186011532992,306.908067484819,610.1543340488344
724.6766224959595,318.4685901913498,622.1849459295479
720.6864729545769,318.4634916102849,618.2009146854431
709.2625922205851,318.5878969882682,621.9534703492019
709.126969964259,318.55322663702697,618.0275629292369
716.151794955464,299.0134245639439,602.5003441542219
713.0895871678912,314.6885021898406,622.0238307678974
705.2459300576651,314.71399509516505,617.9816756996529
709.5358761656631,318.65621797453775,629.8073246215579
701.2557805162824,314.7099162303132,613.9976444555481
697.6755568925169,314.807808986759,621.7933749037644
705.0277107880878,322.3832807329721,610.1033482381854
700.9835162874173,314.64159524404363,606.1448098994051
705.3275073547032,326.32040503127985,617.9439461997727
704.8910688155488,322.34861038173085,606.1774408182204
704.7279142214722,318.44615643466426,602.2627502765981
704.8370238562609,314.6120234738673,606.2029337235448
697.2941830288631,299.26427475233646,613.9905064420573
693.4947204193074,307.03145314658934,613.906889712593
690.0501190518679,307.1640162542765,625.6295472969873
697.620492217016,307.0702023626825,621.8178480928758
700.8478940310912,295.2975786838523,606.2080323046097
693.1949238526919,303.0943288482816,606.0673114672187
693.9311589584619,311.0032477961384,625.6744148103584
693.7404720266351,303.2319905370336,621.7729805795047
713.4434286937945,326.3632331122249,629.8389358241602
697.2666506911128,314.7058373654612,610.0136132114434
697.0208990837851,318.505299975017,602.1475223445316
694.2034231873271,311.0715687824079,633.5272493665015
720.3326314286735,306.78978040411357,610.3858096291802
693.5222527570578,310.9002564586276,613.8946531180374
709.317656896086,307.0151376871817,625.9181269852601
717.1878266278496,310.8584480938955,629.9480454589489
700.8203616933408,310.7381215807641,602.2311390739958
704.7279142214722,299.1368102257142,606.2528998179807
705.4090846517415,318.61746875844455,621.8963662412751
708.8536860191809,318.48490565075747,610.1737086568809
717.2153589656,314.72725140593377,629.9347891481801
712.407397021409,314.5182095822733,602.3912345194333
712.3798646836586,310.64940627023503,602.404490830202
701.0375612467052,322.37920186812016,606.1193169940806
700.5470777482627,310.6698005944946,594.3772848016398
704.78195918076,306.87441684979075,606.2274069126563
693.6854073511344,314.8037301219071,617.8083239434466
713.1436321271791,322.4261088139171,621.9993575787859
720.9597568996548,318.5328323127674,626.0537492415862
708.8271733976435,314.61610233871914,610.1869649676496
709.317656896086,307.0151376871817,625.9181269852601
697.3206956504006,303.13307806437473,613.9782698475015
700.7102323423392,314.5732742577741,598.291975343262
705.9281202041473,314.88530741894533,637.6152916643299
708.9627956539696,314.65077268996043,614.1128723876145
704.7544268430096,322.3149597467025,602.2505136820424
720.8231149271159,318.49816196152614,622.1268221054081
709.0453926672208,306.94681670091217,618.065292429117
708.5814217903159,318.4165846644879,602.3208741007378
704.4821626141446,302.937292551483,598.386808951069
697.1300087185737,314.67116701422,606.0866860752653
689.5045708779247,307.0273742817374,609.9228584684882
693.331565825231,303.1289991995228,609.9932188871837
696.2306190187271,302.8597941192966,582.5659119067165
705.0001784503373,318.51447742093376,610.1166045489541
704.7279142214722,318.44615643466426,602.2627502765981
704.7279142214722,318.44615643466426,602.2627502765981
708.1174509134108,310.57598670290065,590.5666053137412
692.7584853135373,299.1235539149455,594.2997863694535
720.1959894561345,306.7551100528723,606.4588824930023
704.9196208695121,287.59872127586897,614.144483590217
705.0827754635886,291.50219493914847,618.0581544156262
712.544038993948,314.55186021730157,606.3181616556113
708.526357114815,310.6789780404114,602.3463670060623
700.9019389903791,303.0351853079289,606.1825393992852
708.662999087354,310.71364839165267,606.2732941422403
708.7996410598931,310.74729902668093,610.1992015622053
720.9597568996548,318.5328323127674,626.0537492415862
713.3618513967564,314.7568231761101,629.8776850402534
709.3992341931241,318.62154762329646,625.8803974853798
701.6922190554369,318.68069116364916,625.7651695533134
705.845523190896,322.58824369178063,633.6628716228274
697.5929598792657,322.5107452595943,617.8409548622619
693.6854073511344,314.8037301219071,617.8083239434466
705.436616989492,322.4862720704828,621.8831099305064
705.0277107880878,322.3832807329721,610.1033482381854
700.8203616933408,310.7381215807641,602.2311390739958
705.0827754635886,310.8115411480985,614.0680048742436
716.2884369280031,299.0470751989722,606.426251574187
717.1613140063121,306.9906644980702,629.9602820535047
716.3975465627916,295.2129422381751,610.3654153049207
708.8271733976435,314.61610233871914,610.1869649676496
712.6256162909864,306.8489239444663,610.2695619809008
712.8713678983139,322.3577878276476,614.1455033064299
712.5165066561976,310.6830569052633,606.330398250167
697.1575410563241,299.2306241173082,610.0635793058792
713.3893837345067,318.6256264881484,629.8644287294846
701.0926259222059,310.8064425670336,610.0839736301388
716.8604977234837,322.36288640871254,618.1305542667477
712.2442424273326,310.6147359189938,598.4775636940241
712.7897906012757,310.7513778915328,614.184252522523
701.228248178532,330.15045912722496,610.0207512249342
685.8968149164089,303.25646372614506,617.7308255112604
709.1534825857965,322.42202994906523,618.0143066184681
701.5831094206484,303.2064976317091,625.8151356477493
716.3700142250412,329.962831344037,602.3983725329242
701.5015321236101,310.90943390454436,621.8637353224598
720.5773633197881,322.2986442872949,614.2617509547094
701.0375612467052,322.37920186812016,606.1193169940806
705.436616989492,322.4862720704828,621.8831099305064
706.0912747982237,318.78776136601186,641.5289624897391
701.5290644613605,314.7782372165827,621.8504790116912
701.2568002324954,295.4005700213631,617.9877939969307
694.5858167671938,307.3057568078804,645.3192476533782
720.9322245619045,314.6640290007291,626.0670055523549
693.2224561904422,306.9631321603198,606.0540551564501
708.9362830324321,310.78196937792217,614.1261286983834
712.6256162909864,306.8489239444663,610.2695619809008
701.7197513931874,322.5494944756875,625.7519132425447
700.7377646800895,318.4420775698124,598.2787190324933
717.1613140063121,306.9906644980702,629.9602820535047
702.1561899323419,326.5212891252365,637.51943834031
721.0413341966931,330.1382225326692,626.0160197417059
708.717044046642,318.4502352995162,606.2478012369158
704.8094915185104,310.74322016182896,606.2151703181005
712.8163032228132,314.6201812035711,614.1709962117544
697.6755568925169,314.807808986759,621.7933749037644
705.3825720302041,314.7486654464063,621.9086028358308
712.7897906012757,310.7513778915328,614.184252522523
716.424059184329,318.3910917591635,606.3630291689824
704.5637399111828,314.5437024875977,598.3490794511888
698.1385080532089,322.6484069483463,633.5476436907609
697.4573376229396,303.16774841561596,617.9041772674665
712.7897906012757,310.7513778915328,614.184252522523
708.8812183569313,322.3537089627957,610.1614720623252
705.109288085126,314.6803444601368,614.0557682796878
696.9668541244972,310.76871306715344,602.1730152498561
716.7789204264454,310.75647647259774,618.1682837666278
693.3856107845187,310.86660582359934,609.9677259818593
712.8438355605635,318.48898451560933,614.1587596171986
708.8271733976435,314.61610233871914,610.1869649676496
712.544038993948,314.55186021730157,606.3181616556113
700.76529701784,322.3108808818506,598.2664824379376
709.3717018553737,314.7527443112582,625.8926340799356
709.3717018553737,314.7527443112582,625.8926340799356
709.317656896086,326.3244838961317,621.9289971600904
704.9186011532992,306.908067484819,610.1543340488344
709.0178603294704,303.0780133888739,618.0775290236728
713.2252094242173,314.72317254108185,625.9507579040754
690.4314929155216,322.70755048869904,633.4313960424814
697.5929598792657,322.5107452595943,617.8409548622619
716.9430947367348,314.6589304196642,622.081954592037
705.4641493272424,326.3550753825211,621.8708733359507
700.9019389903791,322.3445315168789,602.1923898579026
700.6561873830514,306.8356676336976,598.3164485323734
716.4515915220795,302.95054886225165,610.3399223995963
724.4859355641325,291.386967007082,622.273661240077
705.436616989492,303.17692586153277,625.873259471889
723.8863424309017,302.82206461941644,602.6033354917327
724.376825929344,314.53146589304197,614.3443479679606
728.6127270780543,310.7350624321252,626.194470078977
720.032834862058,302.8526561058058,602.545211667593
705.2734623954154,299.27345219825327,621.9595886464797
704.7014015999348,295.26800691367595,606.2661561287495
700.4379681134741,295.19560706255453,594.4282706122887
728.0121142286102,302.86081383550965,610.5142938720155
712.6531486287367,310.71772725650453,610.2573253863451
697.5399346361909,295.4648121427807,621.856597308969
720.7415376300777,306.8917520254114,622.1655713215013
712.6531486287367,310.71772725650453,610.2573253863451
705.4641493272424,307.04470945735807,625.8600031611204
712.7347259257749,303.0147909836693,614.2087257116345
705.1643527606268,303.10758515905025,618.020424915746
709.72656309749,307.11812902469245,637.6978886775811
708.664018803567,291.4032824664896,610.26242396741
708.6354667496037,306.84484507961434,606.2855307367961
697.1300087185737,314.67116701422,606.0866860752653
704.8920885317617,283.7299179638307,614.1567201847727
709.0453926672208,287.6374704919621,622.0554419704996
709.126969964259,299.2438804280769,622.0166927544066
701.0385809629181,283.76050945022,614.0985963606329
705.0552431258382,287.6333916271102,618.070391010182
727.9305369315721,291.2554236156078,610.5520233718956
724.4859355641325,291.386967007082,622.273661240077
700.7663167340529,283.69116874773755,606.2457618044899
709.126969964259,299.2438804280769,622.0166927544066
712.8438355605635,299.1796383066593,618.1478894423683
720.5783830360012,283.6799518693948,622.2410303212616
720.0603671998084,287.411093492681,606.5221048982069
727.7123176619948,298.9236895372018,602.6736959104283
716.6157658323689,287.54365660036814,618.2437427663882
712.5991036694488,283.670774423478,614.2719481168392
708.255112602163,271.9919646362418,602.4728118164716
704.5922919651463,279.79279366552294,606.3161222231853
723.9414071064024,291.2503250345429,606.5669724115779
716.6708305078697,275.9719170154946,622.2083994024464
720.7150250085402,283.7136025044231,626.1679574574397
712.5175263724107,272.0643644873632,614.3106973329324
724.4043582670944,279.7815767871802,622.3113907399571
701.2568002324954,276.09122381241303,621.9769238221004
716.0977499961762,271.9664717309173,606.514966884716
717.1613140063121,287.6802985729072,633.9504315948872
712.6806809664871,275.9678381506427,618.2243681583416
708.4998444932776,287.50082851942307,606.3487531420006
719.4067291072895,271.8002579882019,590.8664018803568
715.8795307265989,279.63575736872434,598.6366394232485
719.8421479302311,275.771032921538,602.6339269781221
719.9247449434823,268.0680966487027,606.5853273034115
711.808823604391,268.0252685677576,594.690337679024
704.9196208695121,268.2893750669189,618.1336134153865
724.7867518469611,276.0147450964397,634.1033890268338
705.3009947331659,264.52356309239144,629.9256117022634
712.9804775331027,279.9049624489505,626.0649661199288
708.7731284383557,287.5691495056926,614.2015876981436
720.1970091723474,287.4457638439223,610.4490320343849
724.2677162945553,299.05625264488896,614.3953337786095
