acc_x[mg],acc_y[mg],acc_z[mg]
-955.7524740864619,300.3431345056671,149.66782744362246
-962.7772990776668,300.5735903698001,169.18519576002
-966.9856678886266,308.2377774265422,157.32283705444777
-974.7467279856016,300.56033405903145,157.23208231149272
-963.4594892241489,300.40227804601983,149.55259951155594
-962.7772990776668,300.5735903698001,169.18519576002
-967.33950941453,296.5630465041579,149.5077319981849
-936.484936242244,319.5036021475224,145.96727730672555
-951.4360153569262,327.46248718981514,157.4910902295891
-936.6756231740709,311.7323448884176,142.06584307587198
-939.5481637460296,315.86933356446906,169.48193317799658
-932.6864933489012,311.7364237532695,146.05089403618973
-952.415962637598,284.73535814982694,137.99717538609008
-928.9686080363837,311.6721816318519,142.1820907241515
-935.9944527438015,311.9026374959849,161.69945904054904
-940.4475534458761,304.0579606695457,145.96013929323473
-944.0828417451424,296.41926651812804,153.78136264677542
-936.6756231740709,311.7323448884176,142.06584307587198
-967.4486190493187,300.3981991811679,145.56856826745118
-958.8697465495353,308.28060550748734,169.21782667883528
-955.0702839399796,300.5134271132344,169.3014434082995
-956.2704899226546,304.07427612895333,133.94992173678068
-947.8547720169478,308.0552482244192,153.68550932275548
-944.4652353250092,319.49442470160557,137.99921481851604
-966.6032743087599,304.47196545201473,169.11483534132452
-963.513534183437,311.97401763089334,145.58794287549776
-966.6583389842608,316.0437050368883,165.15017870526634
-944.191951379931,300.2533994789251,149.84219891604167
-944.1368867044303,288.6816598940515,153.8058358358869
-944.3010610147197,304.088552155935,145.90201546909495
-924.9519458734635,315.5450638087421,146.15388537370052
-943.1283873697951,296.6588998281779,181.2667934513825
-943.8646224755652,288.749980880321,161.6596901082429
-939.8744729341824,288.754059745173,165.64372135234765
-932.1674577964952,288.69491620482023,165.75894928441417
-927.3594958523045,288.9049777446937,193.302503913161
-931.8676612298799,311.94138671207804,169.61041742083182
-954.5522681037869,296.78228548994815,185.01934911514127
-939.1933025039133,308.23471827790326,181.28616805942906
-947.0910045734273,300.5226045591512,177.26950589650903
-932.4132094038231,311.80474473953905,153.90372859233275
-943.2374970045837,300.49303278897486,177.32762972064876
-963.2218953465252,301.458704042665,267.29107289441356
-958.3241983755921,308.41826719623936,184.92451550733435
-935.7762334742243,323.5437177833409,165.5876369606339
-913.282313532144,311.62221553741597,150.26640086064052
-914.672186730433,288.1014413688671,115.00359449965075
-926.5590186251167,241.766556367363,114.98116074296524
-933.3299342792901,214.03027537436336,36.48126526387707
-929.694645980024,221.669989241994,28.66075571168544
-930.6225877338337,225.29915924398242,1.1622419480658535
-925.434271642202,279.67144743617854,28.528906405347396
-945.4186699841435,299.94544518260574,114.50291383907859
-944.2194837176814,315.69394237583685,145.8642859692148
-927.5226504463809,285.00150408141417,189.3888330877517
-919.6239286606539,234.78557917331608,205.3749241586067
-910.4984882707145,204.1869547704874,252.71015076504213
-913.7248703685766,177.34088603141748,276.3002656360735
-890.740466928054,196.43711155185514,268.73091218713836
-890.4406703614384,238.992928268063,268.5922307821733
-890.6323770094784,269.84036342685835,256.7115171847675
-886.0436540510777,297.0290568134888,272.3865948106642
-913.8360194357911,297.03211596212776,248.4232638056829
-918.8622006495594,323.80068626901135,209.011232174086
-941.3020756323515,343.45979513901284,224.3069753687549
-960.9509873402233,347.37448568063513,212.2253776773924
-954.0628043215573,366.4187056742109,184.7919523996472
-946.9278499793508,323.7354244313808,177.19404689674863
-920.9077513727931,323.28776901388346,150.11242371248082
-898.6320507002902,280.4158402716524,134.89213951757228
-876.3553303115744,256.8542774545844,115.68272549749406
-872.9923062411732,225.80595820183245,107.98896667057559
-871.6564780021722,241.58912574630483,143.2772659368898
-883.4352199782801,230.03778048569086,139.2147165443857
-882.2625463333554,241.9174743668837,170.5893449852906
-890.1062034435819,241.9429672722082,166.5471899170461
-897.8682832567698,272.8842163225974,158.4771558075388
-912.9549846277782,280.80843101364894,166.07404159422435
-920.1980288885604,308.017518724539,173.7229329077718
-935.8578107712625,292.6279616382761,169.61551600189668
-936.0484977030894,304.16503087190836,161.7239322296605
-940.4200211081256,307.926763981584,145.94790269867897
-947.9638816517364,311.8893811852162,149.74634559202175
-947.0084075601761,292.81966828631596,181.22192593801148
-952.5791172316744,261.52355799381036,138.07263438585045
-947.5529360179063,254.0643338958768,173.49451647606475
-939.1647504499499,254.1754829630914,193.24336037280827
-950.3438992928269,269.80773250804305,200.87185736209616
-939.5461243136037,257.94129493761886,181.45136208593152
-942.0648233596592,293.06338046121766,212.6913879867233
-946.87278530385,292.8533189213442,185.14783335797648
-946.4628593862329,292.956310258855,196.92759505029753
-946.272172454406,300.72756751795976,200.82902928115107
-947.0359398979266,288.9508649742777,181.2341625325672
-934.9308887336656,308.3081378452377,193.12405357588983
-944.1368867044303,288.6816598940515,153.8058358358869
-924.842836238675,292.401584638995,154.0821789296039
-932.9587575777663,292.35875655804995,142.18718930521638
-924.787771563174,280.82984505412145,158.0468355656621
-951.5981502347897,284.9403211086355,161.55669877073214
-970.019323622236,269.85463945384004,188.80351598150236
-974.2552247709464,254.34067698959382,180.94354341186852
-957.9958497550132,258.2951364635222,204.7212860660878
-954.1423421861697,258.2655646933459,204.77940989022758
-950.943492426058,261.9334839114275,185.19168115513455
-942.6093518173894,273.61739227972856,200.97484869960692
-958.3231786593792,289.10892098728925,188.913645332504
-969.2565758949286,281.6313419975221,208.3983827300862
-965.1583364349702,297.1106341105271,212.33244787975508
-954.2524715371713,300.719409788256,192.8599470767286
-957.9418047957254,285.3420892965488,200.70564361938077
-951.0250697230963,269.6374399004757,181.2392611136321
-950.9159600883075,246.49294101451568,189.16857438574849
-940.1997624061224,203.7107472990267,173.77493843463367
-984.4126179684196,99.30914226570746,142.06788250829797
-994.5292225173736,149.96558457781202,173.14271438258734
-997.646494980447,177.21342150479524,188.70256407641756
-1026.8950151172928,208.7430468100728,227.40385350756887
-1009.5445437534735,270.89984857214245,270.6255449108513
-967.7402578862303,387.28005995931335,341.50194001009527
-948.773536324841,421.8127495118109,325.9706423702284
-917.5916342481888,433.24886684035835,334.24869858718324
-883.1823303574618,413.60301428112564,330.9060688410416
-869.7852987513577,339.60220870531737,288.1850580983313
-850.5442735286771,316.27518061723424,292.4770436387554
-879.6999994901421,277.3179424166255,237.22677978718525
-887.7068111944446,292.7493078676205,225.2808043521488
-894.2421724034202,343.30785742327913,248.55990577822195
-909.2748288151408,378.2790249473572,252.14114911820042
-904.5239709788767,467.2982109079044,259.7614883777845
-896.7629108819017,513.5953664095283,251.87296375418723
-884.8199945955042,451.81178078140863,275.8077427052052
-874.4025737637218,347.1644241407617,264.542937700438
-886.8879790754235,273.644924617479,252.82945756196054
-867.0769324896881,312.25240015703633,260.84544671218003
-874.5942804117616,378.011859299557,252.66222410303217
-866.5589166534954,347.1389312354372,268.5850927686825
-875.819979299761,300.4665201674374,233.28251747538664
-860.7873228880404,304.11302534504654,221.72097505264287
-880.163970367047,308.09603687293827,217.49323163363638
-875.5201827331455,343.0223368836453,233.14281635420866
-866.5874687074588,381.88882034129904,260.61804999668595
-869.9504927778601,412.937139594051,268.31180882360445
-851.1734384320845,381.7705332605936,260.8495255770319
-859.234295095675,350.845599669612,256.90832241387227
-875.6292923679341,327.5471236354923,233.19380216485754
-882.8998689664667,350.8874080343441,240.8549300729607
-878.9107391412971,370.20083310814607,240.84983149189586
-890.3081072537515,393.5023682909047,240.60102073592924
-897.3604645827068,409.17438676816244,256.1404761054999
-908.6211907226219,413.2002263769993,263.80772231088093
-896.515119842148,413.24815303900925,279.6867431793732
-881.8373246725437,385.910581085284,264.30126495796225
-877.5749109022961,366.6746544436684,280.12828029959263
-892.823747151168,332.0777227697532,291.7897549112082
-924.4420877669746,297.3604645827067,275.73534285408374
-944.1725767718845,289.66874518821413,263.6914746626014
-945.5624499701735,266.1489907358783,228.4286683016117
-966.2749256881812,235.04050822656058,192.90175544146066
-963.6216241020124,238.5707657558902,157.60835759408158
-991.9320053229187,242.3059862440283,117.92508144983252
-977.5825587738933,284.40089123197015,78.75186735531503
-942.7929007357253,318.9172653250601,75.23190895973651
-900.7326660990249,349.4037209444612,60.06057114305089
-912.4022984403441,372.6369351409503,51.95821202959217
-917.2653250600359,383.99861318595043,20.450000764787163
-945.1117354040372,356.95471950156275,0.5010640738682425
-948.8826459596296,310.66266258100376,12.374664130972352
-952.790198487761,283.6452815181535,16.331876838675797
-941.0655014709407,268.1496739457409,24.40894699005267
-951.6165051266233,256.9062829814463,55.68578464613299
-950.4988961571996,261.04837023856265,87.08560007749846
-935.2204881381512,241.58606659766588,87.38009411980646
-948.998893607909,242.11529931220144,134.26705347901682
-966.4656126200081,227.2682312512428,189.00032121060713
-969.8011043526589,223.5666613981329,204.66112280952214
-987.8959685519521,235.59523384642057,235.74717156215428
-980.2705307113032,243.23902657890312,231.9109991689313
-975.1087272412088,255.1227993249479,267.269658853941
-966.2025258370597,290.12149918677636,294.757129090974
-961.9951767423127,321.07600454793436,298.64020842999395
-950.299031779456,340.3302860813836,298.75033778099555
-943.2191421127501,347.8364171251141,279.2084962754866
-962.2409283496405,344.18481336644015,286.78498773791256
-959.8874233300874,324.4696201047249,247.64012175411582
-960.4054391662801,328.20178144422414,231.92119633106108
-971.9108971973102,316.71875716987967,235.71250121091302
-984.0710130370719,308.93424360000614,219.85795353153222
-987.8694559304147,297.392075785309,223.76448634345067
-984.6165612110151,289.48825541851704,208.1414142444158
-992.4041339295276,277.940989022755,208.06391581222948
-987.9510332274529,285.7856658491942,223.80323555954382
-992.8140598471446,277.8390174014572,196.28415411990846
-976.581197452749,277.92467356334737,220.0751530848965
-968.1389669255046,305.0827754635885,235.80835453493296
-967.6474637108495,297.482830528264,251.53951655254343
-967.484309116773,301.38528447533054,255.45420709416572
-963.9856627900456,308.99032799171994,243.70707632065998
-952.0162338821108,309.00358430248866,255.66018976918727
-940.2650242437531,316.68612625106437,259.7349757562471
-956.1420056798194,289.6554888774454,251.73836121407416
-956.0053637072803,289.6901592286867,255.66528835025213
-945.2086084442701,297.13306786721256,232.25362381649188
-934.0029469798557,285.3686019180862,224.61187051643532
-949.7167738218454,281.5507844166969,216.54081669071502
-935.0389786522413,254.21423217918453,201.15431875309105
-934.0569919391434,258.32266880127264,228.62751296314238
-953.2694651078607,246.89878806728092,232.30257019471483
-954.5512483875739,238.85322714688508,196.9887780230762
-950.5886311839415,234.9895224159117,200.9860655779497
-935.69261674476,238.60237695849247,185.49861573524092
-939.3279050440264,250.2720092998119,189.32968954739897
-936.2932295942041,250.037474570827,165.82828998689666
-932.5488316601491,253.84203576144762,161.9462303640897
-906.2024238654384,280.5096541632464,138.70383872168378
-910.0283990965315,284.408029245461,138.6334783029883
-901.7758357849012,284.4855276776473,154.45437534734086
-898.6320507002902,299.7251864806025,130.9030096924026
-910.1650410690706,303.6837248193828,130.71640162542766
-910.0559314342819,299.84857214237286,134.6555653561614
-895.8421071415826,303.29113407738635,99.53562123660986
-887.1265926692603,311.20821075494695,127.11170481255068
-883.9277429091485,314.8761299730286,107.52397607745766
-899.286708509022,303.4236971850734,111.25715713316984
-883.354662397455,318.88157525760585,123.21740859518798
-906.6663947423434,311.2887683357722,118.96927085192192
-902.8404195112502,307.3903932535576,119.0396312706174
-887.4539215736261,322.71162935355096,115.29421362034947
-914.2908128667792,303.64497560328965,122.80544324514489
-909.5103832603387,299.9862338311248,150.36225418466043
-921.83467341039,307.60759280692184,126.60388613848767
-910.4923699734364,295.87779720903677,122.88905997460908
-902.6487128632103,276.54295809476224,130.92136458423622
-891.4155190610454,287.9576613828372,119.27722514824126
-899.1765791580203,260.96985209016333,123.17661994666886
-894.7234784559458,268.8145289166025,138.9149199777702
-905.710920650783,272.9086895117089,154.43500073929425
-902.702757822498,268.80535147068576,130.9458377733477
-898.0314378508463,268.9807426593179,154.5634849821295
-905.5202337189561,261.37162027807665,162.32556479531746
-913.745264692836,265.16292515792856,146.4914114401962
-909.8917571239925,265.1333533877522,146.54953526433596
-913.471980747758,265.2312461441981,154.34424599633925
-901.1211779761694,261.4786904804393,178.09037744795626
-913.1721841811425,269.1683704425059,162.18484395792652
-916.4536309545055,273.20338749725954,177.82117236773007
-928.0406662825737,269.42431921196334,177.66005720607959
-912.0270428739683,277.17926101166046,193.57170899338718
-931.5943772848018,273.3910152804475,185.44253134352712
-915.3625346066191,273.4776911585506,209.23353030851518
-930.5583456124161,265.92771231766204,216.88038218963663
-923.3418139731714,273.4685137126338,201.26444810409265
-926.1052449103415,273.77136942788826,232.618682220738
-929.8761554659338,266.0980049252293,236.5129784381007
-934.4658981405477,258.21967746376185,216.84775127082136
-934.4934304782979,273.66022036067363,212.87085804020742
-948.8714290812867,285.62455068754366,240.08708376458833
-948.7612997302851,262.48107151779664,248.01639703670472
-941.5182554695031,273.89067622480667,232.387206640392
-929.4947816022802,262.3321929507018,248.30497672497745
-952.4241203673018,270.2819005470778,251.85970744341853
-948.5706127984583,270.25232877690144,251.91783126755828
-933.0750052260457,262.4300857071477,256.1007071731937
-956.1685183013569,247.16799314750708,259.73089689139516
-948.0250646245152,251.0796245404904,271.61364992122697
-940.591333431906,250.95216001386817,263.87604329715043
-951.76946255857,247.27506334986975,275.49468982782093
-941.054284592598,243.1115620522809,252.12177451015384
-941.0818169303483,239.2437784564556,252.13401110470957
-959.3398357237181,247.36887724146374,279.3053693157195
-944.5264182977878,239.37532184792974,263.8556489728909
-951.9876818281474,235.6350027787267,271.6065119077361
-948.2697965156299,235.5707606573091,267.7377085956978
-953.0512458382833,239.22950242947388,240.18089765618234
-948.4615031636697,247.10884960715435,259.84612482346165
-949.0335639591502,243.10340432257706,244.15269230573134
-949.0886286346511,254.6751439074506,240.18803566967318
-952.7789816094182,258.60818934090645,244.0446023871557
-957.0413953796659,258.534769773572,232.20671687069492
-941.1368816058492,270.1248642502792,244.18022464348175
-952.8330265687059,270.17992892578,240.07994575109748
-964.8575201521419,262.42906599093476,228.15232520789468
-968.7110277209854,281.76798397006115,224.10507155858525
-961.3588738254144,270.03410950732416,216.40519443438893
-942.7459937899283,292.8920681374374,193.05879173825926
-952.69740431238,289.5229257697583,240.01672334589284
-954.1423421861697,277.5749109022959,200.78926034884495
-941.6273651042915,277.72582890181667,228.44804290965828
-957.2871469869935,281.6445983082908,220.3514961786135
-957.3687242840318,270.038188372176,220.38922567849372
-942.9366807217552,285.1208108783326,189.15735750740572
-947.0899848572143,281.2132583502012,181.25965543789167
-946.5444366832711,281.3499003227402,196.9653245501777
-931.621909622552,288.8315581773593,181.4656381129132
-935.6661041232227,281.08987268843083,177.5060800579199
-942.855103424717,277.41787460549733,193.10977754890817
-946.8992979253874,288.98451560930596,185.1610896687452
-939.3013924224889,292.7605247459632,181.337153870078
-943.0182580187934,273.5144009422178,189.19610672349887
-950.7252731564806,292.88391040773354,185.09072925004975
-931.1314261241098,281.23161324203477,197.1968001305237
-912.3543717783341,288.68267961026453,181.75421780118594
-928.0141536610362,273.2931225240016,177.64782061152383
-924.0790687951544,284.86894097372704,177.66719521957043
-920.0613869160213,288.7428428668302,181.63898986911943
-940.3649564326249,277.04567818776036,153.90168915990682
-936.1025426623772,277.11807803888183,165.7395746763676
-927.6317600811694,288.83665675842417,185.44966935701797
-935.3938398943576,281.1581936747003,185.3599343302759
-942.719481168391,296.76087144947564,193.04655514370353
-943.4006515986601,296.5905788419083,173.41395889523946
-946.4363467646956,296.8251135708933,196.91535845574177
-950.7528054942311,289.0151070956953,185.10296584460548
-923.451943324173,296.6119928823809,193.3351348319763
-923.3968786486721,285.0402532975073,197.29979146803447
-935.229665584068,285.0616673379799,189.27360515568517
-939.3289247602394,288.891721433925,181.3493904646337
-939.5471440298166,277.25064114656897,177.46121254454886
-930.4217036398773,285.27070916164035,216.81715978443205
-899.567130467591,288.90191859605477,217.2668546343553
-931.7850642166286,284.92910423029275,177.5519672875039
-923.3693463109219,288.9090566095456,197.28755487347874
-915.6082862139468,296.58751969326937,197.3772899002208
-922.5515339081136,289.1140195683542,220.8470782581208
-922.8248178531916,289.04569858208464,212.99322398576479
-922.9604401095177,289.0120479470564,209.06731656579979
-918.2075428408275,300.7938490718034,232.64621455848842
-930.0403297762234,281.5048971871128,228.6091580713088
-930.0668423977608,277.6360938750746,228.6224143820775
-925.9145579785147,281.543646403206,236.52011645159155
-918.7520712985578,281.34684117410126,220.92967527137202
-914.1898609616944,285.35738503974346,240.6071390332071
-914.7629414733881,281.35193975516614,224.91370651547675
-930.012797438473,266.06435429020104,232.58605130192268
-930.286081383551,285.30537951288164,220.74408692061
-929.9577327629722,273.80196091427763,232.56157811281125
-933.8122600480287,273.8315326844539,232.5034542886715
-926.2143545451302,277.6065221048982,228.67951849000423
-945.8357339152515,266.0806697496087,220.57583374546869
-926.6497733680717,273.6347274553492,216.91301310845196
-930.148419694799,266.0296839389598,228.66014388195768
-941.8180520361184,269.95355192649885,224.54762839501768
-938.3194057093912,277.55859544288825,212.80049762151197
-918.779603636308,277.47803786206305,220.94191186592775
-937.7473449139106,281.56404072746557,228.49393013924225
-937.4740609688324,281.6323617137351,236.3467646953853
-945.0994988094814,273.98856898125257,240.18293708860827
-941.927161670907,273.7887046035089,220.60846466428396
-918.5338520289805,273.6785752525073,228.8080027328395
-933.8122600480287,273.8315326844539,232.5034542886715
-946.3262174136939,273.6816344011462,204.8436520116452
-926.2959318421684,266.00011216878346,228.71724798988444
-922.3608469762867,277.5769503347219,228.737642314144
-914.7078767978873,269.77918045407966,228.87836315153496
-926.1868222073797,262.1659792079864,232.65641172061817
-941.7364747390802,262.2506156536636,228.4990287203072
-941.1368816058492,270.1248642502792,244.18022464348175
-914.4080802312718,273.71630475238743,236.71896111312222
-919.297619472501,261.90085299261216,209.21313598425562
-930.2310167080503,273.7336399280081,224.70772384045523
-915.1167829992914,269.67720883278184,217.09860145921394
-915.3350022688686,258.03612854542587,213.21042353912907
-919.2711068509635,285.07900251360047,205.21074984831725
-918.779603636308,277.47803786206305,220.94191186592775
-927.0321669479384,277.40155914608965,205.1210148215752
-925.8319609652634,273.8407101303707,240.47253649309397
-938.4285153441798,281.39374811989825,208.86133389077824
-915.9631474560631,284.9127887708851,189.56218484395794
-930.5858779501666,281.3682552145738,212.90348895902275
-914.8710313919637,265.87672650701313,224.9646923261257
-919.0794002029237,273.5409135637552,213.10233362055342
-915.1443153370419,285.1177517296937,213.1217082286
-918.9713102843479,289.0161268119083,213.0513478099045
-907.5464098341433,288.89274115013797,209.29777242993276
-934.7391820856257,277.4607026864424,205.00476717329568
-927.1688089204777,277.3668887948484,201.19408768539716
-907.1650359704895,285.1269291756104,221.0907904330225
-930.6674552472049,289.0711914874091,208.9510689175203
-915.2809573095808,285.08308137845245,209.194781092422
-922.251737341498,293.05114386666196,228.68665650349507
-914.9811607429652,289.0202056767602,217.0353790540093
-911.5640917132763,285.0198589732478,205.32699749659673
-934.685137126338,285.19830931051894,204.97927426797125
-926.5416834494962,289.1099407035022,216.86202729780305
-926.2418868828806,293.04706500181004,224.70262525939035
-927.1412765827272,281.2356921068867,201.18083137462847
-918.5073394074429,277.54635884833255,228.79576613828377
-930.1759520325494,262.1608806269216,228.67238047651338
-934.2211662494329,273.7285413469432,220.72369259635045
-945.808201577501,289.25881927059703,216.5734476095303
-926.7599027190734,296.77922634130925,208.98369983633557
-934.0845242768938,293.07255790713447,220.66047019114586
-930.6399229094544,292.93999479944733,208.93883232296454
-934.5484951537989,285.2319599455472,208.90620140414924
-930.6399229094544,292.93999479944733,208.93883232296454
-934.3027435464712,281.43147761977843,216.772292271061
-922.987972447268,285.1432446350181,209.0795531603555
-930.4492359776275,281.4019058496021,216.82939637898775
-929.4947816022802,281.6415391596519,244.3158468998078
-934.3302758842215,296.87304023290324,212.79437932423411
-930.2310167080503,293.0429861369581,220.71859401528556
-938.4295350603928,300.7030943288483,204.8711843493956
-941.4917428479655,277.75947953684494,232.37497004583628
-934.3843208435094,289.1354336088267,212.81987222955854
-937.9920768050254,266.05517684428423,224.61798881371317
-945.808201577501,250.6401268526969,224.55272697608257
-965.2388940157955,266.19487796546224,216.36032692101793
-945.3452504168092,277.7890513070213,232.31684622169652
-941.7099621175429,285.42876517465197,224.49664258436883
-929.7670458311453,281.5732181733824,236.46199262745182
-934.5209628160484,289.1007632575854,208.8939648095935
-926.4866187739952,277.5382011186287,220.82668393386126
-926.1868222073797,281.4753254169365,228.66728189544853
-942.391132547812,265.9481066419216,208.8541958772874
-930.6939678687422,265.8930419664208,212.95345505345867
-930.749032544243,258.1554353423442,212.9789479587831
-914.9526086890019,254.27031657089833,225.00242182600584
-941.8720969954063,242.9065990934723,228.56225112551178
-942.0097586841582,262.1822946673941,220.64619416416414
-926.8139476783612,269.7322735082827,212.99934228304267
-934.4658981405477,258.21967746376185,216.84775127082136
-915.6072664977337,257.9678075591563,205.35758898298604
-927.3594958523045,269.5956315357436,197.29265345454363
-927.6042277434192,254.08574793634935,193.4167121290145
-919.0794002029237,273.5409135637552,213.10233362055342
-926.595728408784,262.0629878704757,220.87766974451011
-931.348625677474,269.59053295467874,193.30862221043887
-927.468605487093,273.42976449654066,193.3534897238099
-919.297619472501,261.90085299261216,209.21313598425562
-946.3262174136939,273.6816344011462,204.8436520116452
-922.8237981369787,269.7363523731346,216.98337352714745
-931.1304064078969,261.9222670330847,201.18694967190632
-927.2503862175158,265.7604788587336,201.23181718527738
-927.5226504463809,265.6921578724641,193.37898262913436
-931.348625677474,269.59053295467874,193.30862221043887
-934.9023366797021,273.5572290231629,201.0910963478864
-931.8941738514172,269.45389098213974,177.60193338193983
-927.7133373782077,277.23024682230937,185.48739885689815
-919.0253552436359,281.27852018783176,213.076840715229
-934.9298690174526,269.6894454273376,201.10333294244214
-934.8758240581647,277.4260323352011,201.07784003711768
-927.7408697159581,273.3614435102711,185.50065516766685
-935.093023611529,265.7859717640581,197.18966211703284
-938.6467346137572,269.7526678325423,204.9721362544804
-943.0733226942943,285.08614052709135,185.2314500874407
-942.6644164928902,285.1891318646021,197.01121177976174
-946.0264208470784,277.618758699454,212.68424997323245
-957.914272457975,289.2108926085871,200.693407024825
-953.8150132818039,285.38083851264196,208.61660199966352
-954.0342522675942,293.05012415044894,200.73827453819604
-934.7667144233761,292.9012455833542,201.0278739426818
-950.2888346173262,277.5453391321196,200.84738417298468
-927.0596992856889,273.53275583405144,205.13325141613092
-962.0400442556838,269.8627971835439,196.7725981859249
-957.7235855261482,296.98316958390484,204.59484125567857
-953.9241229165923,289.21599118965196,204.6774382689298
-957.6695405668603,285.4104102828183,208.55949789173675
-953.897610295055,293.0837747854772,204.66520167437406
-972.9193965319452,289.4331907430162,212.24169313680002
-977.6457811790979,281.52019293030753,188.64953883334272
-973.7096765970032,293.09601138003296,188.66993315760226
-981.0893628303245,281.6517363217817,200.37219641773697
-985.0519800339566,285.51646076896805,196.3749088628635
-965.3214910290468,293.20818016346055,208.4187770543458
-989.096174534627,277.7747752800396,192.41535080787017
-977.4275619095207,293.1602535014506,192.53873646964053
-992.3225566324893,270.2380527499197,212.01633585373193
-1000.7933392136969,277.8298399555404,188.3160916316989
-1000.7658068759465,281.69864326757863,188.3028353209302
-1004.537737147752,274.02527876491973,192.19713153829292
-996.7756573345638,262.3933759234805,196.2770161064176
-989.5866580330695,266.06537400641406,180.67433833164233
-1008.1730254470182,266.38556489728916,200.01733517562064
-1011.9990006781114,289.59328618845376,195.95784493175552
-1026.6808747125676,278.311146008066,219.32362223593177
-1034.0840144187873,282.30843356293946,227.04797254923955
-1034.4103236069402,255.19315974364338,223.20976072359068
-1050.3382908536555,239.73426195489796,211.24950926157254
-1050.5626284205107,228.09420138375492,207.3613313414877
-1030.8515140236473,231.9171174662092,219.41743612752572
-1042.822982364008,231.90284143922747,207.46432267899849
-1038.5605685937603,212.66691479761184,223.2913380206289
-1026.1608194439489,216.65094604171662,247.01197656692145
-1000.1376616887521,216.20329062421928,219.93035338265364
-969.1189142061766,204.42760779675018,228.28386859936884
-908.6905314251046,184.33409982002013,197.85961566895935
-843.6173412939179,160.54819943609695,191.0652465418874
-809.0183701875769,167.98295034491903,187.63390148521668
-780.5173020348437,191.3293530410487,227.22846231893664
-756.3602249493968,202.99694594994216,255.02388685228902
-760.1872198967028,226.20466724110682,250.96337689221093
-777.6814712465522,226.79814207706,301.7197513931873
-806.7637776406826,223.61152891150397,352.31399101630024
-818.5975842922915,242.94228916092655,340.2976551625683
-818.4334099820021,246.84474310799308,344.21234570419057
-798.8120306118808,258.3705954632826,352.31603044872617
-799.357578785824,238.9246072817935,340.59949116160976
-790.5044026247497,227.5670081016453,376.0927533867325
-805.0190432002775,239.49666807727414,399.3820519749354
-800.1835489183361,243.5755329291858,426.9133700091265
-780.6988115207539,274.3760611421842,427.1009977923145
-773.5108319354724,278.04907894133066,411.4983200175392
-757.7409207017688,250.98581064889643,427.5241800207003
-774.7640631612223,235.25362891507294,384.1515706178971
-783.4245129580438,215.76379293642583,360.5400417063932
-780.2531955356825,196.25356263351912,344.95469910723847
-766.4747900659247,195.72432991898356,298.06712791830034
-770.4649396073073,176.41090484518162,298.0722264993653
-781.5614914369332,184.34021811729798,309.6531435301556
-794.1580458158495,172.58390989787543,282.03209046922245
-829.711471297538,164.90850596279057,257.9780047212861
-852.4511428469458,180.63049053448427,265.4331499543677
-883.2516710599441,223.3565998582595,256.9786828325677
-910.1446467448111,235.17103190182175,256.53612599613535
-902.4376316071239,235.11086864525606,256.65135392820184
-914.3805478935213,258.27576185547565,240.69585434373616
-926.1868222073797,262.1659792079864,232.65641172061817
-945.5624499701735,246.83964452692817,232.41881784299434
-965.5121779608735,266.12655697919274,208.5064726486619
-972.9183768157322,270.1228248178532,216.2318426781827
-954.1974068616706,269.8373042782194,200.81475325416937
-950.0706153477488,269.8760534943126,208.72571163445215
-954.4156261312478,277.5065899160264,192.93642579270193
-969.474795164506,289.30062763532914,200.52005526861876
-999.3208690021568,312.9560043439911,223.54116849280848
-1009.846379752515,344.2001091096348,246.82536849994648
-1028.1288717349962,367.7667705077677,270.01983348034247
-973.1202806259018,383.0645531348626,298.2649528636181
-919.662677876747,390.24845385529215,283.34242580289913
-899.3866406978939,359.45812280442357,319.07226218943276
-898.7044505514117,359.6284154119909,338.70485843789675
-926.0603773969706,363.60326921017884,326.5070130982548
-952.7351338122602,367.74841561593416,333.94278372328984
-1006.3018461962037,364.39864785630164,344.9261470532751
-1067.8162267440973,364.90952567900354,347.92717186806914
-1136.718451255016,392.5948208613543,354.6511805764456
-1171.0420989838528,404.5367174315389,361.94623036408973
-1171.7864918193268,415.9381644088451,338.3489774795675
-1141.61308907731,400.08769559431613,323.15520590619633
-1068.3974649854947,418.8321190212764,320.26431044240394
-1058.1187255586772,410.6978427903515,285.12387002697153
-1032.2893138839463,441.09660281543654,246.16255296151084
-1020.1037051388599,491.3696318314614,254.02456496357067
-1026.986789576461,549.5627966736859,265.49943150821133
-1053.82572030204,627.0428739681747,253.0619528585195
-1092.0956697751017,666.027644506534,252.35732895535176
-1160.2025156398977,709.358445544605,278.66294810154335
-1241.535080787017,748.4992326635498,257.6894250330134
-1206.9055181942865,759.8038066006231,254.2458433817869
-1167.5444723733387,754.8551238190412,168.5101436270286
-1077.2689960384025,730.4155853425992,111.07564764725979
-1036.9800084636447,721.8377325590288,52.838635007877315
-1056.9358547516229,721.8152988023434,32.91684724141272
-1103.067816226744,718.3380665160886,36.16209408921498
-1126.7252323678322,641.1424900450206,36.06807625437841
-1110.7156878240787,571.6600470089174,67.93930649100356
-1118.7204600959556,471.2353352062122,79.93208690021568
-1158.3466321322778,374.7120576343604,67.89036011278061
-1177.9047890971942,293.6854073511342,75.71984316764646
-1209.3324427811742,228.12173372150534,71.5456348498213
-1224.6383831379728,224.40588784141377,75.25352694345165
-1236.038810399066,209.08873060627232,82.98379161079473
-1261.9192078844458,209.57105637501087,113.99101630016366
-1253.7716753427521,213.4826877679942,125.87376932999547
-1260.8281115365594,209.84434032008892,145.40337424094878
-1271.7900608260722,217.80730422723357,160.9112184079171
-1264.1931750393867,240.89265957284093,153.0981527840802
-1228.6152763685868,291.0545395216512,169.15970285469555
-1228.7784309626632,325.7707779924847,157.26675266273398
-1215.4099514105226,325.13855394043844,98.59972569633872
-1192.1808160788853,340.4353168513203,98.89615719945141
-1166.0250952160015,340.0213120688513,75.74156312298288
-1135.2194684219382,355.22426108813926,72.22700922333316
-1107.5647647259768,355.186531588259,92.26453477997075
-1097.6633202979613,350.8180673318616,45.332096077661596
-1073.6184119959416,347.010446992602,73.17748670544988
-1085.1208108783328,335.5274227182575,76.96848567043793
-1069.4681670091215,331.60865331178337,85.06554225958917
-1069.9576307913508,300.58990582920774,77.31355763690966
-1058.4246404225705,258.01369478874034,85.47924112719431
-1058.2003028557153,231.03506294198328,97.34731024355924
-1055.4980548913238,222.99358088643933,66.01805917413185
-1047.1057904585155,223.10574966986692,85.7664951843902
-1020.3790285163641,188.07849775407504,86.28502087868947
-1016.6060785283457,176.44251604778393,86.3807722310881
-1004.8273365522376,168.68451509944785,94.43265539200442
-1035.8685177914988,176.5913946148787,86.09168268470886
-1074.8726629379046,169.04957350369395,73.7590308617112
-1101.5994248800562,165.45711328537269,81.2200904488281
-1101.2425242055137,177.13184420775698,89.03519550509095
-1070.8855725451608,169.05365236854587,77.74346999230116
-1065.7767943181414,192.51018441567714,109.13818684260171
-1054.4579443540863,215.5302779236539,97.45570607699878
-1034.1044087430469,234.9640295105872,125.16710599440178
-1033.1458755028477,254.5130090295871,148.6634069738392
-1013.0890773097848,250.70130982547562,172.5247663575227
-989.8589222619346,246.68770681119446,176.81063360066895
-979.3619635655398,230.88414494246257,149.54852064670402
-972.0363222915064,215.28146716768728,141.8618998332764
-964.4659491263583,215.18765327609327,138.0512203453779
-956.5407147190937,188.14987788898353,150.03492528029452
-906.2544293923003,195.5346627033697,154.6878903601128
-859.8226713505632,183.63967307898216,163.27288115717397
-835.8827938184804,164.35683949156953,191.1682378793982
-815.4701146670882,172.21987120984232,222.84470231934458
-772.2922710609638,187.53804816119677,243.06363539027095
-733.9213696828174,202.64718328889072,235.73799411623747
-711.2367628089104,198.49693830207056,224.3171725308847
-691.6153834387891,210.02279065736005,232.42187699163324
-734.1936339116825,202.57886230262122,227.88413984388148
-814.5166800079539,211.07717722157926,242.35085375739936
-928.4852625514321,251.00008667587812,279.7560838818557
-1015.94326298991,282.8733563449292,305.8108528396548
-1073.1697368622315,287.32543733079086,320.63650686014086
-1126.3581345311602,299.51920380558096,339.4217189356203
-1164.5363095450537,292.18132593699175,350.64879444050723
-1225.6173107024317,296.66297869302974,365.4173443530666
-1294.6520983210373,266.38556489728916,380.1838548332
-1298.8023433078577,243.16866616020764,376.2752825888556
-1330.699066449807,227.6924331958416,348.3768667179924
-1299.9240311421333,200.4078864851912,352.8544406091785
-1242.3916424059187,199.89292979763735,345.8693845502797
-1204.5193822559183,183.98433715896869,330.79186062518806
-1167.01421994259,191.14988298756458,299.93218887183696
-1101.7013965013539,202.1821926957728,293.0246312451245
-1048.982068290395,201.45717446834547,258.4950008412659
-995.6570286489272,208.6074245537467,239.6465663605819
-957.0679080012035,235.35662025258372,236.20910300663328
-934.030479317606,281.50081832226095,224.625126827204
-902.6844029306644,316.14873580682496,232.82670432818549
-876.9386079853979,334.9421056120082,193.90311676260498
-866.2784946949266,361.66070982445586,162.57539526749707
-820.3372201516319,376.6760310605559,151.43907450556512
-817.7379635247512,391.779047890972,112.18102002212785
-782.2120703808132,414.8949947229687,132.25821253945028
-778.7409563918362,418.6312349273197,120.52331836050028
-786.884410068678,434.02894974328655,104.65143550549884
-790.7379176375215,453.3678677224129,100.60367199808294
-802.5166596136296,461.125868670749,92.55189080878793
-812.9320410129861,469.22649426664566,123.76499620155711
-839.6343297660262,488.8121835693127,127.22387359597826
-869.6710905355042,485.38695680991987,150.33370213069705
-892.2190554368719,489.5708524317683,165.68043113601487
-883.8573824904531,485.8142179031576,185.44151162731413
-876.0402380017642,443.30122926789477,197.47518265666668
-851.0918611350463,412.6852696894455,256.8216465357691
-824.0897758153907,397.0367046850862,261.20336710293526
-826.7716294555227,428.25531654540544,288.53074189453076
-872.8770783091068,428.646887571189,291.7632422896708
-934.722866626218,421.35183778354485,286.93692545364627
-973.2844549361914,417.7797718894832,286.37098295544354
-1019.4449684652761,410.43373629119026,289.628976255908
-1045.2703012751554,437.96301489295536,316.62188412964673
-1084.1622776381334,445.89538731371067,304.2384504392428
-1133.0066842397762,469.76796357573687,334.8238185313028
-1152.4322780970058,504.6330806136653,322.6412689348555
-1160.5288248280506,527.7673823374955,306.7428734583166
-1157.6022392968039,531.3669805693077,279.3023101670805
-1107.4525959425494,558.0274609576156,276.03921828555116
-1138.737489356712,569.7348227988151,259.832868512693
-1188.8055554139285,593.299444764522,255.07793181157686
-1234.5296304038588,609.2345500247282,266.113300668424
-1199.9918422702963,589.6233678167367,266.69759805846036
-1146.8034446013676,577.4285816257336,247.91136626676797
-1081.643578592078,565.2490911779253,241.0792676398159
-1062.5442939230013,541.8873927386009,241.44432604406197
-1074.026298481133,553.5825179852447,241.2332447879755
-1104.5464047355622,538.4489096684393,252.6010411302535
-1138.6865035460632,538.8537370049916,267.7866549739208
-1166.8612625106434,523.3132619192079,236.02045550723236
-1182.6056808390226,534.9359873147304,223.97148873468518
-1207.3337990037373,519.2629491212596,180.48263168360248
-1216.1033584353477,522.9176120285725,148.94178949998218
-1267.2829151647097,503.72145431926305,120.768050251615
-1298.0579504723837,492.3873086120133,124.26975572698119
-1318.1463598680489,473.02187801134954,104.41078247923603
-1349.329281660914,461.585760682802,96.1334400636303
-1396.1138615123414,442.49565345964226,83.72318783682502
-1423.4116645337604,396.28007525505654,83.4701962443852
-1466.8617723687498,361.5832113922696,59.388578158698444
-1491.4063416151287,334.37310396516654,23.79130487985194
-1522.4770946245662,319.10183395960905,19.45271830849475
-1545.0536115798975,280.79823385151917,42.79147313302708
-1522.2017712470622,261.24211631902847,39.275083744194
-1498.3404118633787,249.6622190044511,63.219244084371326
-1475.2744311258177,222.4368158341534,67.581284128627
-1441.684979070325,202.58600031611206,40.679029026222004
-1399.7032625820236,202.15669979044836,29.53546827917791
-1349.472041930731,182.49453177180794,38.20346397597549
-1303.7785584271899,162.6906231995636,27.180841571790573
-1242.3916424059187,162.14609474183337,20.25288962081853
-1196.861313496454,177.05944435663557,-2.663080664651028
-1150.6477747242945,172.83374037005504,-1.9565702864892702
-1092.2792186934378,195.70189616229806,10.61453197575115
-1065.0324014826674,195.56219504112008,18.87239781168901
-1057.5986702900584,195.43371079828486,11.134893159233787
-1049.1758143708607,218.72402910270077,26.880943033553766
-1023.3769941825191,206.63529339784742,-4.0888070849882485
-1007.9099386640698,214.2535932250055,-3.8828040156424475
-985.1162221553743,206.26921527738835,-11.363717477426034
-981.9163526790495,209.93713449546993,-30.951242269276467
-962.5397052000429,186.6447767586281,-22.73314536564474
-939.3921471654439,190.3351297333952,-22.39888239103058
-947.3438941942458,174.88540939056662,-26.39045953511138
-950.7344506023975,182.75557912233026,-14.69400865739065
-955.0233769941826,178.8133562429576,-26.518739834704007
-912.1177976169233,194.0642319242555,-14.153661036133647
-869.8393437106455,197.57103598068662,-17.45682776483305
-854.3437361382328,209.05813911988295,-17.263489570852435
-892.8777921104557,190.04655004512247,-13.851927008713476
-903.9478313185441,201.8446666292771,-2.28368505045046
-922.1242728148757,202.26682914144996,28.839613935441772
-895.3954714402983,205.8592893597712,21.378554348324865
-891.7601831410319,194.1886373022388,17.547786451030678
-852.6530466571154,197.89632545262657,33.819602004762075
-856.1782056053802,167.11313241524886,49.569118914206186
-881.7618656727834,171.5325824822952,88.41714550840501
-903.955989048248,187.39120902652795,111.57938745647087
-955.6137926814969,203.83005409594512,173.54346285428767
-1013.0329929180709,181.20051189753892,188.45885190151583
-1016.5326589610113,192.9048145900996,196.21583313363894
-966.8184344296983,157.66546170200834,193.1546450622792
-881.496739457409,137.83809965686552,214.12306954974432
-785.6780857887251,121.51652195194079,203.83923154186192
-687.4875722086545,132.82415503765304,256.29139410502063
-654.6965579479231,140.80241468799235,311.7007336858153
-614.553389791621,175.66549229349474,351.4309167758613
-631.5846899807784,184.0985453748222,413.9415600638343
-680.0171312323781,208.07411297435925,456.3056701320023
-757.3687242840318,271.38523348951986,545.1994309983533
-891.5042343715745,318.9539751087273,554.8041380083923
-1050.919529095053,394.1886373022389,607.1064022882433
-1222.588753549887,430.72201006459903,647.5830176461892
-1384.1627874962398,451.3498493369296,649.0177583578492
-1491.2329898589226,452.3879204417412,670.9579723962822
-1583.333758215089,430.0265636073482,685.3522864586786
-1649.768269490601,395.54282043307353,664.8508919967574
-1613.6091325784037,328.9981798065599,610.6723498850271
-1549.0305048105113,254.88418573111105,600.1152279320665
-1487.6639831134996,168.3765608031285,499.286708509022
-1367.1539210637682,77.89693728235433,438.60237695849247
-1216.1543442459963,56.61056527968267,354.59509618473186
-1045.6679905982166,27.50633498697313,278.7547225607114
-956.764032569736,46.19977260328451,283.947117517195
-935.6712027042876,112.16164541408128,323.2867492976705
-981.1505458031031,182.22430697536876,330.21878011349446
-1003.9452820280118,228.82737734088604,329.72013888534826
-1004.9272687411094,244.02828692774804,298.2567951339143
-993.6400299796568,282.48994304884957,282.5980329674252
-956.1705577337829,343.7157439084703,239.78218861690794
-941.6039116313932,416.76005567650526,200.50781867406303
-922.5280804352151,447.4586122682058,188.91568476492995
-900.0627125470982,489.59634533709277,161.63827606777036
-881.0133939724575,497.11675240780494,154.04852829457562
-839.2529559023724,542.9744102216354,127.04746269113308
-819.6315765322511,554.5002625769249,135.15114743566866
-804.6815171337818,546.5413775346323,123.62835422901809
-782.1600648539512,519.1793323917954,112.28401135963863
-789.838527937675,484.48858682628634,120.1348064833557
-770.3803031616302,472.8016193093462,128.31496994386464
-823.428999709381,446.41136371747746,159.00638852207433
-857.5629802226041,408.1964789199167,182.1723014485069
-872.2132430544581,381.47379584261705,209.51497198329707
-914.7099162303133,347.0175850060929,212.91980441843035
-952.4526724212653,343.6515017870527,235.91338530486968
-979.7005093482486,363.1005491171807,223.6655738707918
-985.0264871286322,328.00395649890635,188.3823731855425
-984.8888254398802,308.7292806411976,196.29944986310312
-989.4520554929564,324.0280829845055,172.63081684367242
-1043.6693468207798,343.68617213829395,159.97919778925527
-1105.1072486527,375.11178638984774,158.9523435627865
-1166.7083050786966,421.94429290328503,150.02268868573879
-1189.9986233831125,437.52861578622674,141.77216480653436
-1201.7457541566184,449.1564397628141,133.70722927809192
-1174.9068234310394,468.2230935130754,126.1959996532965
-1124.4920538614106,475.6425486787028,134.7758918692928
-1092.8400626105756,514.2286101777876,150.81806733186156
-1099.702752723917,576.2895586158372,162.2796775657335
-1080.4912992714128,626.3321317677292,150.62432125139574
-1067.9283955275248,672.8383290930135,170.2793512565453
-1029.1485879479742,726.6681282599053,166.75419230828064
-997.422157413592,776.860599695105,182.75761855475625
-944.1287289747264,799.451392677418,159.93229084345828
-906.0035792039076,818.3610101308807,144.74157841872608
-911.4661989568305,821.8484395792652,97.55227320236779
-1011.2739824506841,799.5462262852249,111.83125736107642
-1119.8523450923608,742.2810031968104,102.54878067433835
-1224.0061590859264,727.609326324484,101.03786716156895
-1259.3903116762608,704.5280498437286,84.88709192231804
-1276.0830660827091,638.673757093401,61.31155899313222
-1298.8227376321172,577.1573371130816,84.7261807039101
-1307.6534800365062,515.1463547694676,65.18005639030659
-1332.0450918509382,449.3512055594928,41.48878567094778
-1382.9085365542771,399.3422830426293,29.121871383194062
-1455.8794287549777,338.17868487200013,47.858341023693114
-1506.080057919881,303.7816175758287,51.14692581054693
-1560.9509873402235,249.89879316586197,34.80831884486548
-1599.3840914073614,227.0530711303045,42.159045137738175
-1613.6499212269227,196.5645760784774,81.29432578913288
-1606.2671758449626,188.69848521156564,73.58221207038082
-1555.9033920859827,149.76164133521644,90.16657064338996
-1501.8992214466716,137.77283781923492,94.94047406606742
-1432.8032508552872,137.16916582115198,88.12815793364707
-1386.049262490249,152.38945001606055,100.55115661311459
-1316.7697429805287,140.24768906813236,101.62981242320264
-1247.918504280259,182.06319181371828,78.97222802893955
-1186.184884746575,193.1923745621594,79.85948310585165
-1116.711619156389,208.132236798499,80.84972952027452
-1063.0949406780094,219.21859146599505,69.84158708631388
-1047.6564372135235,242.27845390627792,66.07047258747892
-997.8851085742839,253.3943803439503,55.00461421586373
-971.5376810633602,241.443306327849,39.74109405352491
-940.3567987029211,272.18978958155947,44.0291027007184
-936.8306200384434,264.3542902010371,36.25906910106918
-898.5412959573353,267.8570153926163,28.97156521340111
-897.6133542035253,244.91747946546477,60.459790040431756
-912.6725232367834,237.40217097581748,72.03346708610995
-935.3836427322278,218.3742664416493,87.45596100605204
-931.1762936374807,230.01840587764428,95.32888397159073
-932.5386344980193,191.05810852839656,64.0429708412149
-947.243962005374,195.21651124492055,83.43175294315593
-985.914659950136,176.1702518189188,82.91679625560208
-1032.2077365869081,149.4812193766475,86.23801196127118
-1043.251263173459,165.14711955662742,97.79353805835837
-1058.3430631255324,134.45366154599176,113.37000912646012
-1031.5041323999533,114.90162287835297,113.838058868217
-995.0737509751038,91.90039412031632,169.40545446202324
-935.1440094221779,84.26384137294592,233.1224220299491
-891.5011752229356,88.113066133695,269.08475371304166
-868.106845864796,30.07469421260064,289.2547404057451
-864.3349155929905,-0.8706224857622125,293.33972355493466
-865.8063660883178,-55.3063482432839,262.1047962352078
-873.7581131171196,-90.06541479506255,262.1027568027818
-840.2206665884886,-136.96318314613046,239.2152264024922
-787.4462737020287,-110.64022882431821,200.6709732681395
-713.7126337740208,-57.009682205442225,205.51972386084955
-660.0113188499641,4.302264279850918,186.49385875910738
-651.4875110256817,62.37624469110247,198.199181167881
-677.2904100788751,151.70216128851342,213.21042353912907
-760.1056425996646,237.81005746100865,250.92564739233075
-881.0184925535224,328.1885251334554,299.8291975343262
-1001.1675750638598,449.65202184232135,364.3384845997359
-1125.2772353454034,517.0522043715234,436.81991301820705
-1246.5214930684792,599.6237247174113,477.896121509384
-1311.946485293143,631.0452601041131,472.88523603881043
-1386.1716284358065,604.3246164592395,448.3161936033203
-1444.9786624382436,558.1753198084974,427.9677565733457
-1489.2445432436155,484.6548005690017,388.3058944695692
-1483.9420189361304,414.4789505080737,333.6776575079156
-1440.9711777212403,336.0637934462839,256.0935691597029
-1392.238939903025,258.09731151820455,233.5384662448441
-1335.4407468401546,249.67343588279383,206.94528712659272
-1300.9845360036304,276.3849020817507,195.5978851085743
-1276.8784447288322,280.31386865035466,223.41778283103815
-1194.1488683699326,240.5276011685948,173.77187928599474
-1121.9121718425763,177.92620313766682,159.36634834525555
-1085.1514023647221,99.94595504071218,124.85813198186946
-1092.8502597727054,100.00550646755009,124.74290404980295
-1073.4246659154758,142.37889595325623,120.9658751969327
-1099.9066959665126,173.60464582706635,128.31293051143868
-1095.1344240897758,227.87394268175169,143.9003125430193
-1082.5919146701474,251.20199048604775,167.55772868410725
-1063.625193108758,285.7356997547583,152.0264310442404
-1051.5415559849694,320.53351552263007,159.93942885694912
-1049.022856938914,343.33946862588147,116.72895433200941
-1026.7216633610867,400.8840939566519,81.54741935319402
-1003.7413387854161,439.2896656860396,69.98822227774012
-975.6777288880505,497.28398586673336,89.8360806187638
-949.1131018237626,535.5916648396752,70.48166295320014
-913.9145375841905,570.2110302702758,78.74136427832136
-902.1092829865449,566.320812917765,86.78060295819674
-887.4314878169407,577.6029530981529,63.4146217107779
-876.3624683250653,585.1141827229483,47.85660750613105
-893.7394523104222,577.0166162756906,-7.321052551075036
-910.7350624321252,584.4625840628554,-54.69615006143791
-999.9928619865093,612.0234738672228,-79.67389475508966
-1076.6775606348754,647.4708488627616,-77.01753402028216
-1149.5668755385377,713.7707575981605,-82.25765169553314
-1189.2236390612495,748.5441001769208,-122.21502755783068
-1204.8864800925903,791.0825817175081,-138.2918733716407
-1198.0747757898978,798.5214114911821,-165.68756914950572
-1215.2365996543165,821.3732518240174,-220.96638505503918
-1185.634237991567,801.5183574411243,-251.85256942992768
-1117.2316744250077,781.4340269103109,-274.30774015591464
-1063.2784895963455,761.7076167702529,-269.5089556576405
-1077.7686569827617,738.8884073562328,-238.2515945812281
-1131.1915893806754,716.2639637388916,-219.35217428989515
-1138.462165979208,681.6751897946803,-199.72161747385704
-1059.515736770457,658.3807926254124,-139.59099182697457
-954.678712914196,653.914435612569,-114.45804632570757
-916.1171246042228,657.4854817904178,-113.89210382750483
-943.5281161252825,673.0320751734793,-130.053586086992
-1011.827688354331,689.2812530272827,-103.65925163027131
-1061.024916765664,740.0988105010376,-88.86938964886073
-1114.998495918586,755.9564173290574,-93.65603952420044
-1159.9271922623934,748.9173163108708,-55.05906706163675
-1199.6145472714945,721.8948366669557,-83.03467544982233
-1242.5445998378652,702.7761773898325,-95.38710976735176
-1251.426328052903,652.3369346310923,-118.89789071701348
-1256.2291914160292,613.5081806733187,-138.462165979208
-1272.7383969041416,574.7344913910459,-162.1257004175738
-1311.9260909688835,540.1110470955933,-174.37045270301277
-1354.172933672559,521.1637001422505,-167.08967894235036
-1427.500726547802,506.2534096760872,-168.13794720929167
-1500.6857591532278,472.0694630684281,-161.26913879867234
-1550.8863883181311,437.67137605604364,-157.98055401181853
-1562.3683928762628,391.43846267583734,-146.223226076183
-1557.7490784314728,345.2575548224929,-114.60080659552447
-1560.2065945047495,291.57051592541796,-63.436647580978224
-1502.7353887413135,264.00860640483756,-66.40738682424681
-1451.9025355243639,232.91134077386266,-38.068657492619806
-1423.941916964509,217.50240907955316,-6.20099626274008
-1388.2008636996325,175.02001193067971,33.72395262398475
-1341.1715519570905,151.6899246939577,61.97947311263276
-1302.6568705929142,108.90467182982977,70.54988196784835
-1249.3359098162982,77.43612752570961,59.68093079695921
-1192.4357451321298,45.86897666379448,41.016657064339
-1149.6076641870568,49.5130345224924,53.41966930603214
-1103.3941254148972,45.287228564290565,54.12623067000454
-1094.573580172638,68.67941651838294,81.65183829340295
-1067.9283955275248,79.97471103791815,70.23897049451139
-1033.737310906375,87.30759229706374,55.027863745519625
-1013.8416278749625,118.21162170567932,66.99545716427119
-1006.8993998970087,144.99344832333162,39.53684489606543
-1017.7512198355198,168.43162547862931,54.99370325238487
-1029.4748971361273,183.9272330510419,46.9165311293867
-1043.852895739116,215.20192930307496,70.14342308535535
-1051.1234723376485,238.5422137019268,77.80495887994371
-1051.5925417956184,250.0109619492895,62.060846466428394
-1065.7767943181414,250.4382230425273,97.1684520198029
-1095.8890140873796,254.71593255596972,116.32616642788314
-1111.633432415759,227.71996553359202,112.25647902188821
-1117.863898477054,224.28658104449534,155.34560731748357
-1143.968633529289,193.8184803169278,186.4540898268012
-1132.3846573498597,216.90791452738702,182.6250554470691
-1117.2112801007481,201.27974384728734,178.980589701886
-1055.0697740818732,193.20257172428916,195.63765404088045
-1020.7155348666467,165.82013225719282,192.31949748385026
-993.6563454390645,157.9081541606971,196.67674486190495
-989.8579025457217,150.14097576644423,196.75934187515617
-971.2164704562722,118.93969908174557,185.37013149240568
-937.0264055513352,106.9631321603198,174.14917428479654
-832.1108635466751,133.4115115763283,195.25424074480074
-759.4132552910526,136.57875013383776,180.6335496831232
-657.5874534117156,155.5240576547547,225.26652832516712
-600.004078864852,162.74670759127739,218.25495964473092
-541.7660465092565,204.89055895744218,222.90996415697512
-517.1735506008679,220.5289267996717,262.47189407187983
-548.9275134730005,205.0873641865469,238.5004053371947
-575.8745341171552,209.1641896060327,238.0833414060867
-632.9949575033269,209.78213763109727,256.84815915730655
-693.5599822569379,229.8409752565861,283.345484951538
-787.9887627273331,269.6823074138468,328.89212932041016
-913.5708932204169,282.64697934564816,370.1386304191544
-1043.149291552161,314.9158989053347,403.40993101619824
-1156.6437060566047,343.3690403960578,456.5585597528209
-1259.9001697827496,359.8180826276048,474.5800043847798
-1345.0362764042768,348.7980095139523,465.49229349472046
-1403.10911473337,329.8669780200171,460.7618299827159
-1434.343022336884,272.07354193328,460.48854603763783
-1405.4442648610893,209.55983949666808,417.96230109160626
-1346.2497386977204,150.5396848057186,360.178042450786
-1281.640519443439,99.60394222287938,345.6195540781001
-1212.626126149093,87.39375831706037,338.8455792752877
-1136.0556357165801,94.39931067184004,324.26975572698126
-1063.849530675613,124.47573840200275,289.92877282252357
-992.2379201868122,146.67801950717117,239.90659399489124
-953.0777584598209,216.05135290848557,244.1832837921207
-985.8514375449313,294.0361897283986,282.67553139961154
-1008.6196611483026,363.8174096149042,278.1745040355269
-1007.3113652470518,414.3504662652384,305.4957605298446
-996.1332361203878,437.33690913818685,289.88798417400443
-977.9027496647684,463.9606797428276,254.74958319099798
-951.7194964641342,467.41649798860976,231.58163083213947
-945.0760453365829,470.95185409900427,200.27226422886514
-945.5124838757374,447.6707132405052,192.49590838869545
-961.5801522436308,432.17816481673157,176.60872979049932
-976.8300082087156,416.89057935176646,184.28107457694526
-972.8123263295826,401.4551350359195,192.24199905166395
-983.6090815925929,374.70186047223063,219.64279341059387
-1002.5758031539824,378.7878633376332,227.1948116839084
-1018.3987396307609,378.80417879704083,215.18357441124138
-1044.4749226290326,371.5152473066746,242.28967078462068
-1036.1642354932624,379.3293326467244,258.0871143560747
-1007.5020521788787,406.5792090061336,301.59534601520403
-1023.0506849943662,425.97319166076085,293.44679375729737
-1015.0469324387024,468.46986483661607,293.42436000061184
-1019.2002365741615,483.8716585174347,281.5354886735022
-1018.7097530757192,495.58004007484726,293.277520865943
-1034.8080129300017,534.1467269658855,265.4341696705807
-1087.8332560048539,627.4813519397552,272.1744938383648
-1119.668796174025,677.6707642263159,232.2811561542423
-1100.6714831262461,677.4535646729516,224.71792100258503
-1105.8618386503038,681.0103348238185,185.38134837074844
-1114.3866661907991,680.8645154053627,161.7065970540399
-1164.9747875166343,688.8519525016188,145.22390418746465
-1235.1312629695158,673.7417976577119,124.601163496199
-1223.0986116563763,642.8739681746571,144.50806340595415
-1091.7285719384297,614.9174284796542,162.26846068739073
-972.5981859248571,606.1896774127761,156.23378013898733
-926.9291756104278,563.2076193195435,149.2130340126343
-1004.7885873361445,528.8472618070391,132.46419521447183
-1136.157607337878,498.87576287519187,126.67322684097017
-1237.384835800197,487.8036842346775,97.72175003696472
-1291.7968929246993,480.38015020419823,85.15792854848497
-1323.0308005282131,461.20540653536125,76.90546720847588
-1331.1783330699068,457.2937751423779,65.02281615026538
-1377.5856179225323,453.74822186985364,60.41502449868203
-1440.0840246159496,450.1506630704675,35.94326298990991
-1473.4797305909767,439.15404342971357,74.72633366134205
-1527.8408019048302,439.46811602331076,62.13712123915915
-1569.7103496097038,436.06328358817746,77.21994768855828
-1592.6437672395773,424.70466469181633,84.7640121754116
-1608.1026650283227,397.7759989394952,88.54777115528749
-1573.666848516058,381.99996940851366,85.19219101324103
-1531.3894143259931,385.5067734649448,81.88902428454162
-1487.9087150046144,385.4527285056569,113.93799105708884
-1430.3559319441401,350.1878827122412,114.9189580539736
-1387.4462737020287,307.509700050476,139.25346576047886
-1326.2021179505743,306.9315209577175,128.39858667332882
-1280.5596202576824,279.3910254776096,117.40094731636188
-1216.3582874885922,247.6615357945884,87.07295559645752
-1155.4098494389013,204.52652026940908,76.35757368724285
-1102.0379028516365,200.10503076993677,61.47348992775311
-1063.3090810827348,188.26918468590193,69.94274293464129
-1035.6543773867734,188.23145518602175,89.98026849127889
-1050.8787404465338,176.8136927493079,97.63996879668389
-1001.4102675225486,183.9924948886725,78.73371640672401
-955.9594764776964,167.99008835840988,59.84541102211256
-906.354361581172,155.89421464006568,48.85531756512163
-875.3631464363468,159.55907470950837,53.2318375796016
-878.7812351822489,163.56044112923374,64.94103490998457
-885.6969505386652,179.26509052530682,84.40751938735451
-885.2880443372611,179.36808186281758,96.18717910805424
-867.7479057578278,191.36810225714186,155.278306047427
-883.3801553027794,218.46604090081732,143.1793731804439
-898.5209016330756,218.65366868400528,150.80073215624094
-925.0865484135766,218.96468212896355,162.17566651200974
-932.8200761728012,215.155022357278,162.07267517449895
-963.1025885496068,215.5302779236539,177.316412842306
-966.4921252415454,184.78073552130442,196.99285688792813
-962.9934789148181,192.38577903769382,185.24572611442238
-985.3507568843593,185.03260542591,208.4830191757634
-954.1403027537438,181.02817985754567,220.73796862333214
-940.8615582283451,154.3371079828484,275.9719170154946
-909.215685274788,154.30345734782014,299.9933718446157
-917.031810047264,138.8884073562328,299.9281100069851
-955.1569598180827,119.97878990277007,315.1198421479302
-971.2521605237264,100.61774408182204,299.24591986050285
-957.0923811903149,96.32218953465252,264.1503469584415
-899.8628481693546,72.56086431146213,253.31382276312507
-807.2705765985327,68.01221620023148,258.64082025972175
-741.4886836993265,67.57475794486395,267.47666124517553
-693.3387038387218,87.00596024126487,319.15281977025796
-669.6190850086422,133.3207568333733,327.2014398392928
-691.9223180188955,153.01351633840304,346.4230904539267
-772.1362544803782,157.67871801277707,364.82896809817834
-898.6187943895216,197.44968975134222,374.5743959456084
-982.9330097433884,244.56363793956146,377.0777992484692
-1086.0181611457533,284.225500043338,395.02276516445477
-1162.4152998220598,323.6099993371845,405.5187041446366
-1252.4154527794917,348.11785879989606,470.8070543967615
-1315.688843794772,356.9088322719788,532.6232709436964
-1376.7392534657606,326.64059592215494,555.3588636282523
-1384.2851534417973,291.983500991674,567.1365858881474
-1386.6814865422953,241.17716039626174,508.4029714530447
-1346.178358562812,186.31132955698433,466.02356564168196
-1298.1191334451623,108.17455502133757,423.83586647835915
-1269.6690511030781,60.998506115748,365.55194689317966
-1236.3447252629594,21.769819459244495,334.78710874763556
-1167.4221064277813,36.572325921696,320.0705643619381
-1118.0372502332602,70.7645322306802,293.22245619044224
-989.3969908174556,293.1469971906819,180.58562302111324
-954.7715070895772,362.3796097546053,165.17261246195187
-954.8275914812908,412.570041757379,153.22765674312842
-954.909168778329,439.58232423916434,145.2861068764563
-956.0828621394668,466.3213227758716,105.93219906899911
-906.9702701738107,519.755472052128,67.24171862970536
-938.0716146696375,519.9247449434823,58.926034884491656
-925.3108859804317,535.5835071099714,90.46137060056188
-924.9019797790277,554.9958446564323,98.25118669474287
-904.2996334120215,570.6301336338098,133.8285755074363
-915.4512499171482,590.1311864907997,141.44483590216845
-1073.1697368622315,494.87235702304054,166.87655825383797
-1114.8455384866393,499.23980156322506,185.86061499084806
-1149.7708187811334,503.30744953679397,177.47446885531758
-1186.286856367873,495.39343200787226,125.93393258656118
-1144.1623796097547,494.9977821172368,118.71740094731638
-1184.4003813738639,588.5506263606839,160.96934223205685
-1167.758612778064,627.3579662779849,188.55980380660066
-1063.258095272086,653.7043740726957,197.8861282904968
-956.259273044312,679.6785854496694,168.00436438539157
-902.4202964315032,721.7153666134716,156.89455624499703
-1102.4151978504383,772.5686141546809,43.838211825648926
-1216.174738570256,738.1684877098704,-8.769936726608986
-1314.3632127179008,533.7673925346577,-21.325019247143523
-1329.9954622628525,483.6269266263199,-17.465393381022064
-1379.869782239603,457.03578694049446,-6.348885705108269
-1399.1934044755346,430.13771267456275,-2.6229344373460868
-1429.6931164057046,418.8718879535826,8.732064466458985
-1602.137325182402,246.665273054509,69.52384351434996
-1575.9612099952585,211.50239888239105,54.3361902382567
-1503.1534723886343,172.21477262877744,51.634656075214274
-1460.111251038836,148.8806065272035,75.90583940489363
-1421.7393299444766,144.68039544594743,72.57014372900024
-1355.9268455588813,148.11174050261815,81.39364614827694
-1295.3047166973433,135.78948978499284,54.87082744872103
-1221.9565294978408,115.94887142908131,63.8857306011737
-1156.1440451122453,119.38021648575203,72.70923302045041
-1120.3520060367202,123.25513809506816,104.62900174881331
-1093.0236115289115,134.72184691000496,112.8489341416284
-1065.338316346561,138.55292072216304,132.87412113208896
-1061.8406897360467,126.84861802960238,125.11713989996585
-1026.3341712001552,126.78641534061072,149.19671855322665
-984.4676826439203,130.19022805953105,134.11409604707012
-960.8836860701667,118.54302947489714,150.20419817164887
-942.7072445738352,137.42919345546136,115.09129009396686
-887.231623439197,141.25822783519348,159.0808278056217
-891.3033502776179,148.95708524317683,151.1443765200145
-825.6591190671637,187.10364905446815,148.07401100273796
-809.8086502526348,171.64679069814875,164.0621415060189
-767.5577286841072,190.5951573677046,156.78238746156947
-739.3289247602393,213.87221936135177,188.52309402293346
-707.7921614414709,198.36437519438343,212.5955346627034
-670.0759178720563,217.17100131033536,185.62506054565017
-682.4002080221074,205.48301407718233,165.85684204086004
-685.6531027415072,194.07850795123719,185.46904396506454
-686.3352928879893,193.9071956274569,165.8364477166005
-644.4647254669026,178.0016621374272,154.74397475182658
-587.344302080731,158.07538761962547,139.9682868257764
-530.1423013975211,149.7545033217256,125.15486939984604
-525.525026385157,122.88294167733122,152.78713933912192
-545.2004507145662,122.9298486231282,140.71777824231518
-597.8412607771259,154.56960327940737,171.21952960491097
-689.5881876073889,163.19232357634874,189.4398188984006
-823.559523384642,195.35417293367257,206.94732655901862
-1002.6553410185946,251.32537614781808,251.17139899965844
-1181.3106412485406,291.95902780256256,311.15212636323315
-1338.2143749394545,351.3809506814254,328.22421520090967
-1453.411715519571,390.994886123192,330.2901602484029
-1525.944129748691,411.04046743791207,344.8343725941071
-1560.1658058562305,380.5295386293995,364.0478654790372
-1555.4955056007916,380.7049298180317,387.664492971606
-1559.5029903177947,318.9040090142914,395.66212722999194
-1545.1555832011952,283.76050945022,372.4482876415494
-1491.7836366139306,221.4099616076846,369.5329189886455
-1442.2254286632033,201.57750098147687,358.56893026670684
-1374.506074959339,181.3218581268833,316.48014357604285
-1114.2948917316312,190.42588447635026,265.4025584679784
-1113.8564137600506,252.32571775274945,265.20065465780874
-1106.8407662147627,290.71395430651654,237.70400697485894
-1094.5429886862487,317.84248443658134,253.4953322490351
-1076.8509123910817,344.32961306868305,202.65024243752967
-1058.6489779894257,347.77625386854845,171.5142275904616
-1066.4600041808364,366.12298797244733,53.59709992709029
-1077.8298399555406,393.2933264672442,53.33513483197627
-1094.4716085513403,393.10467896784326,17.76498600439498
-1082.1738310228266,420.2332090979081,33.55610733532858
-1082.46954872459,435.60543100855034,21.725869690465146
-1073.6795949687203,455.12891762222574,49.26412179490448
-1078.6762044123122,466.4579647484106,13.82949325202796
-1069.7434903866256,486.0151019971143,45.29426460616011
-1125.4505871016097,552.6403002044532,91.33057670050425
-1212.6057318248334,607.7600403807621,121.23609999337185
-1172.56147614119,622.2920161319106,51.143662718665404
-980.3490488597024,993.4248698587185,186.20833821947355
-788.0305710920652,960.9530267726494,185.2732584521728
-803.6883135423413,926.2531037612233,185.15599108768032
-1174.9578092416882,494.248290700698,8.368861945720507
-1206.6301948167827,432.484079680625,-3.6710497468554504
-1257.7893572218852,378.5380328654536,-23.87849061606155
-1289.217010905865,332.2826857285618,-32.042440588784146
-1358.710670820311,332.7843861053469,-37.00968220544223
-1426.9602769549238,279.5337857474265,5.318523654866851
-1506.273804000347,257.3906481826108,55.22528080435216
-1567.1916505636484,246.46642839297826,77.89734516883952
-1631.474560629777,227.9708157219846,116.24254969841894
-1683.9185654632317,228.76313521946844,158.62603437463355
-1652.6540663733285,232.49631627518062,170.85549091687784
-1587.3412429320922,243.52862598338885,163.94691357395237
-1536.6103613364403,254.885205447324,180.36740375153596
-1456.6238215904514,277.19863561970703,150.09304910443427
-1387.2321332973036,280.53208791993194,151.120923047116
-1331.9329230675105,310.3506294198325,73.35634492920622
-1290.8893454951487,294.2411526872072,38.704042664926355
-1246.1951838803263,285.7703701059995,-3.7687895458693847
-1188.3976689287372,304.63308061366524,-6.89123197014271
-1173.6933611375955,319.78402410609135,-30.269765924143318
-1141.3071742134164,346.9686386278699,9.369733803082603
-1158.5913640233925,378.5125399601291,60.02457516073278
-1169.7164679069817,401.8823961291573,67.62839501766659
-1150.0359449965076,382.5261429744103,83.686885939643
-1109.3696624229478,350.8731320073624,41.23202112851994
-1060.6374246047328,311.52534249718303,10.697740818730148
-1000.8310687135771,260.37943640284914,-31.40471006918775
-1006.4925331280306,280.26186312349273,23.38810908924047
-1054.29478976001,277.36179021378354,89.40035588095834
-1127.9183003370163,258.51437544931247,80.51189753891494
-1168.8089204774312,239.9086334273172,127.05765985326286
-1206.1713225209426,213.46739202479952,165.83338856796158
-1236.7016259375018,179.02341778283105,181.19031473540915
-1200.9503755104956,155.8513865591206,217.12613379696433
-1162.904763604289,143.84524786751848,205.96228069728198
-1089.0671126225573,135.7130110690195,226.7196239286607
-988.3568802802181,111.89855863113297,247.93074087481455
-906.5613639724066,119.21604217546259,272.67925336378886
-812.9881254047,118.77552477145612,305.47944507043695
-786.2593240301225,122.36798498977737,298.0181815400774
-809.706678631337,114.74050771670247,289.84413637684634
-828.974216475555,114.88938628379722,289.5545369723606
-821.8943268088491,122.39551732752777,270.0126954668516
-753.2419327701101,137.13041660505883,247.4433165250111
-638.7012894311514,139.83266456945032,217.75325926794574
-546.1640825358304,146.85545012822934,219.11560012848426
-488.2533790846008,161.88402767509803,219.9323928150796
-430.15198870154444,184.6848821972845,224.64960001631547
-406.32326023667616,207.854873988569,240.62753335746666
-440.3766831690741,219.866111261236,255.7754177012538
-494.76222767203893,235.620726751745,239.20910810521434
-565.7416141087936,244.47084376418047,300.91009672008283
-661.6153324529784,272.3641610539787,307.22825837569405
-794.9054977999623,304.6973227350829,344.36938200098916
-917.862878760841,355.94316101828866,342.3544227641448
-1063.4722356768114,395.8976816751898,355.7371783432671
-1229.2271060963735,447.36785752525077,341.30717421341643
-1413.459234295096,476.01372538022673,354.1494801996605
-1558.9115549142675,500.5623734914574,375.4350364293618
-1650.7675913793194,513.0192267491957,389.71616199211763
-1685.560308566126,497.8121988650559,389.2460728179348
-1555.3425481688448,375.8826918468591,281.71801787562526
-1369.142367679075,273.35940407784517,229.90827652664268
-1205.2943665777816,240.71930781663468,185.37726950589655
-1113.1732038973555,228.3307755451658,178.94999821549663
-1020.1648881116387,223.88481285658204,196.05675740441438
-939.5185919758533,203.882059622807,193.4075346830977
-896.8567247734956,184.31370549576056,205.8868216975216
-861.7672701687122,184.14851146925812,218.18663865846136
-872.3447864459321,169.03631719292522,249.47561093747612
-911.1796587009836,165.396950028807,241.05785359934333
-948.8969219866112,185.20901633075516,260.04904834984427
-1011.4799651257057,208.62374001315436,227.63532908791487
-1052.6122580085962,232.43717273482793,258.33592511204137
-1133.2616132930207,271.74927217755305,256.9949982919754
-1199.4513926774182,310.70345122952284,228.4001162476483
-1247.1435199583957,318.4216832455528,184.48909668439276
-1252.6091988599574,341.2184589028874,133.30953995503054
-1257.248907629007,364.2212172352435,105.69052632652334
-1250.2230629215892,421.91879999796055,74.20393304543346
-1234.2441098642248,445.1153044107826,86.13899751699104
-1195.3011476905979,483.5392310320039,90.51735302065437
-1187.4595300127976,522.1324305445795,86.580024779104
-1187.7552477145612,576.1233448731219,66.77030382444566
-1192.4867309427789,606.8290394783132,35.19887015443603
-1192.1808160788853,649.3858759107341,35.05978086298583
-1211.6981843952829,672.6435632963347,22.915266681282603
-1265.6717635482048,688.5011701243545,18.128616805942908
-1281.5283506600115,723.267374689624,-1.8492247607490837
-1308.581421790316,750.4886989950697,-10.195581569649168
-1303.6357981573728,789.3511035878716,13.29505998480623
-1309.31561746366,819.818184599226,-45.76211040467438
-1333.4217087384582,854.5068907323092,-81.56179735179701
-1403.1702977061486,916.7371120617132,-106.36455874330176
-1439.2172658349182,955.2813651960661,-154.1290858754009
-1359.404077845136,931.2048456914441,-180.32559538680385
-1182.7994269194885,894.9151851039858,-189.33172897982496
-970.8881218356933,870.1003910611677,-182.14884797560842
-835.8522023320911,815.0336761279337,-164.241611559503
-811.0394477216992,726.4560272876059,-96.85264590864364
-852.5255821304931,642.046978325932,-54.01854863791408
-907.5086803342631,591.9993065929752,-74.29642130595056
-973.86263402895,549.8126271458653,-90.84651741420365
-1024.2335558014206,569.4401248132646,-103.44103236069404
-1051.2050496346867,588.958512845875,-107.8360092386289
-1066.4294126944474,616.1584231108483,-108.15518041329099
-1101.6810021770943,631.7305093992343,-128.35881774102268
-1150.576394589386,628.556132828234,-93.7591328333325
-1219.968082882534,605.9133343190591,-90.7975710359807
-1273.2074663621117,610.3694941697727,-71.98696802679815
-1384.6828427648588,572.6828223705344,-57.83116558661725
-1464.3226789984349,581.3524496132727,-23.73175345301403
-1575.5023376994184,528.2925361871792,2.2542662377060467
-1640.713189519357,494.1167473092239,17.09125950248046
-1664.4317886332237,447.8022566319794,9.042975939795957
-1652.6234748869392,385.9840006526184,29.051510964498583
-1614.2515537925797,343.1650971534622,33.69529859840007
-1561.012170313002,280.7808986758985,26.85402252553115
-1507.9563357517604,229.9337694319671,12.121774510153825
-1495.8217128173233,195.23078727190224,35.96824603712787
-1434.281839364105,179.2803862685015,36.944012481326446
-1369.8561690281597,139.88161094767327,14.494144279646974
-1285.6887928089614,131.35270454232588,0.08529987304533149
-1211.922521962138,111.61507752392511,20.879913120178657
-1131.9767708646684,106.88155486328155,-5.379064206431351
-1084.4274038535077,118.43901842117339,30.615755635206725
-1072.221400784162,133.96113861512342,46.4449123808844
-1064.0228824318194,145.6103766321833,58.30227447701305
-1067.7652409334482,161.11516165051268,58.19377667195221
-1063.196912299307,165.12570551615488,77.87175029189378
-1051.8066822003439,161.13351654234629,74.13132925106943
-1040.8753243972203,168.61007581590044,54.64669382510848
-1024.8045968806882,184.10262423967413,70.533668480062
-1055.630617999011,184.34123783351097,70.07102323423392
-1104.281278520188,196.67572514569198,108.54675143907453
-1177.6090713954309,220.38514681364177,99.51930577720222
-1243.4113586188964,216.95380175697107,90.69590532954679
-1301.8716891089211,240.40727465546343,66.19345036276405
-1313.1905390729762,236.69652735643675,73.88578158698435
-1278.5303849938564,232.55953868038526,74.41878725150791
-1204.4683964452695,216.75903596029227,103.05354019976242
-1127.0209500695958,212.39770971738568,116.00291638836913
-1086.62999087354,204.84161257921923,171.57744999566623
-1045.9942997863695,212.79437932423411,231.02894464470543
-1018.8596513590269,216.48881116385311,235.34744280666695
-1029.2709538935317,205.28009055079974,270.55110562730397
-1058.0065567752497,213.76922802384098,328.9614700228927
-1076.6163776620967,190.91024967751477,352.30685300280936
-1037.479669408004,159.8680487220407,376.54550738529474
-885.4664946745322,107.94002029235264,327.9784635935819
-744.1695176232455,40.86553512157567,306.77346494470595
-579.2334793227046,27.80878281574238,289.66466632336227
-461.11261235998023,11.103587871495364,256.16902815946327
-406.9463068428057,3.0179724982537364,264.8570102940352
-395.65804836514,22.169752157974436,253.1873779527158
-428.73152401686616,76.90750664090184,287.82917714000195
-496.8689613680514,154.98870664294128,306.16775351419705
-522.2354218820903,209.66690969903078,340.9247806335497
-543.5842005169961,268.21799493201047,379.65360240245144
-592.2623933759236,315.30339106626633,410.162491778538
-703.8489188458852,339.3788908546752,408.41061932464197
-842.6567686212928,367.4628950763003,398.38680895106893
-1041.9460264208471,407.902800650579,418.81274441322984
-1183.054355972733,424.8198926238828,455.88860620089434
-1309.8050812458894,464.52356309239144,457.78017977596835
-1421.1784860273387,461.6204310340433,467.8957646087095
-1520.407070712221,462.6340289497433,493.87813371538704
-1571.3826841989876,435.76858560262684,473.5827219284874
-1584.4146574008455,342.803097897855,450.1537222191065
-1558.7382031580612,272.7526729311233,427.2264228865107
-1486.175197442552,213.10029418812746,310.7758510806443
-1309.8050812458894,156.44486139507376,188.0213936461483
-1127.051541555985,189.21956019639737,120.0053025243075
-1041.4055768279688,293.0552227315138,124.86221084672137
-979.0111811882755,397.03466525266026,125.44548852054474
-904.787057761825,443.0646551064839,146.0254011308653
-863.5986804872206,407.6794827999368,119.28946174279699
-837.3603626110855,380.2531955356825,104.07631556137927
-826.8348518607273,349.00909077003877,80.79191161099867
-823.4718277903261,317.9607715172868,73.0978468692163
-819.9731814635988,306.25646882472614,65.34045775060801
-831.5326844539167,287.0368576425181,69.15674567767792
-870.2584470741792,279.5623378013899,64.67733629730847
-942.7368163440115,230.10814090438635,95.15543024376318
-992.9405046575539,215.01940010095194,94.45437534734084
-1062.003844330123,219.4928951272861,101.25404699872027
-1100.2330051546655,223.72777655978345,108.51615995268517
-1140.2976551625684,239.0898013082959,60.768866024585364
-1198.8905487602801,281.8179500644971,28.350048181591067
-1215.206008167927,308.7445763843923,-3.382082566421765
-1255.1380950681428,343.45061769309604,-51.19271106850964
-1274.0436336567534,355.2732074663621,-43.66659358700474
-1282.1095889014089,420.8960246363438,-67.55650502465164
-1252.6499875084764,478.24384473800944,-118.32888907017178
-1218.020424915746,528.1671110929829,-129.7527698041635
-1202.9388221258025,578.1709350287816,-149.31806478257104
-1225.8620425935462,644.0486812520076,-157.73276297206488
-1275.5222221655715,687.0256407641755,-154.69706780602962
-1326.140934977796,729.7639866825064,-179.14782316081437
-1353.0614430004132,776.3283078319305,-187.55742276924335
-1367.2253011986766,819.2420449388936,-160.44112923373427
-1363.3401824272307,881.0093151076056,-172.36569062829818
-1362.0043541882296,974.0298674878783,-153.03595009508854
-1384.8256030346756,1074.6891140195685,-165.49178363661395
-1335.4407468401546,1128.1936237145205,-196.32902163327947
-1186.5825740696366,1138.2684198987422,-237.30427821937158
-950.4173188601615,1093.2479490957667,-304.2578250472894
-777.0563852079968,1002.0771619258361,-395.54485986549946
-676.2105306093315,920.3683214961277,-358.4363671590197
-724.6123803745419,832.3555954377898,-292.1466555857505
-860.6894301315946,745.2667322684098,-199.70020343338453
-948.3646301234369,707.5719027394676,-165.56418348773536
-967.7667705077679,669.0684382536341,-161.80041094563384
-944.9730539990722,661.0840603060169,-169.28104908403992
-999.4942207583631,638.1853130273846,-181.79500644970506
-1064.267614322934,665.9093574258285,-167.16003936104585
-1140.1650920548814,697.6928920681376,-140.93191864704053
-1204.5805652286972,717.7823211800156,-114.49169696073582
-1315.4033232551383,695.7064848852565,-84.6808033324326
-1395.430651649646,669.5242514008352,-54.394110119153844
-1475.4783743684134,600.8535024702626,-16.115391086660587
-1543.6667975302475,536.0311625274686,30.177379635247515
-1601.5968755895237,497.82443545961166,33.36307505621186
-1647.0558243640799,455.89982307923714,64.22060540551566
-1683.0416095200706,386.325605583966,40.36852543937023
-1671.9674914471304,316.59843065674823,40.76957982593444
-1654.204035017055,258.1452381802145,9.83599904146676
-1600.2814416747822,215.2416982353811,18.63765913946149
-1561.2772965283764,164.8554807197157,42.939535927151475
-1534.0610708039956,102.91893765964933,63.17937318044389
-1515.3084896473313,48.57377391871842,59.71896621170329
-1435.6686534137552,-18.02460575221916,37.588881014413694
-1335.746661704048,-57.485583762039035,39.21869343761632
-1235.1210658073858,-54.28785568976155,52.488974318447184
-1137.9625050348488,-35.517123584506436,73.50410180846671
-1071.85430294749,-8.839338612064264,86.17815461956938
-1036.3069957630792,18.144932265350555,106.24321251395737
-1016.2216455160531,76.12966711364228,118.12188667893726
-1011.4147032880751,114.95770727006676,137.68616194113181
-1003.7362402043512,149.64845283557588,129.83434710120176
-980.8884787363678,168.71102772098527,118.33908623230155
-973.8361214074124,191.65872137784055,94.81933177996565
-978.5349737168146,206.92387308612015,67.22509725543382
-1017.0700494052506,226.53097642925974,62.65707453615659
-1066.8882849902873,246.29511606919797,65.76873856005874
-1140.4914012430343,269.93621675087826,48.88805045555823
-1205.0190432002776,293.8597788235534,71.3884965814014
-1247.8471241453506,309.52567900353336,54.99574268481083
-1235.5697409410961,294.1667134036598,78.77909377820154
-1154.3493445774043,258.860059245512,95.81335114437653
-1061.8406897360467,242.70469528330267,101.1781801124747
-991.9320053229187,222.9966400350783,121.91523099121517
-972.282073898834,219.081949493456,133.99580896636468
-987.668571836458,203.76071339346262,137.74224633284558
-1041.4769569628775,184.90208175064882,144.84864862108876
-1109.7469574217496,166.40137049859027,179.21002584980602
-1110.6545048513,135.28065139471687,159.67838150642677
-975.9693677249622,107.15789795699857,161.79123349971704
-818.2223287259156,71.11959741603913,164.27526219453128
-710.515823446335,43.20527397225353,165.9832868512693
-641.4535034899789,38.732594718889736,159.18381914313247
-633.5833337582152,42.576007097224846,163.21271790060828
-671.1639550713038,81.73178404450043,182.14069024590458
-738.6192022760067,140.6749501613701,224.10303212615935
-780.0268185364014,203.03773459846127,238.97049451137752
-800.5842973900365,238.6166529854742,305.2612258008597
-810.1278214272968,293.27854058215604,352.0294901928794
-821.4425925265,289.56779328312933,359.7212095873719
-870.9926427475235,290.090907700387,374.67534785069324
-910.5902627298824,274.6748379925867,346.66272376397654
-953.8231710115075,251.61803470094276,326.4692835983746
-1015.7505366256572,213.40722876823384,325.6708458036129
-1069.8658563321828,209.92081903606228,320.9475203050991
-1162.2929338765023,199.06288080027332,323.52434317529435
-1273.360423794058,219.40621924918298,337.49037642824004
-1330.7806437468453,216.08704297593982,348.4156159340856
-1365.3286290425376,216.3888789749813,351.8214680854319
-1350.4509694951896,216.13293020552385,336.3462548372788
-1339.0097535855773,219.87834785579176,332.58044286275134
-1285.984510510725,203.7811077177222,309.88155996186265
-1265.2332855766242,195.2838125149771,243.50211336185143
-1151.7592653964402,220.89092605527884,178.3973120280626
-1102.425395012568,266.6547699775153,147.58454722050857
-1066.3274410731494,313.0855083030393,179.36604243039164
-1069.0398861996707,379.0550289854334,198.7253547337776
-1072.0480490279556,421.77705944435667,214.2352383331719
-1083.305716019232,425.8039187694065,221.90248453855295
-1087.649707086518,433.4344551911204,206.1131986968027
-1073.1697368622315,436.9443183961904,178.8459871617729
-1043.6795439829095,440.23290318304424,140.03048951476805
-1036.7556708967895,424.5272340707582,120.56308729280643
-1034.2675633371234,424.15605736923425,81.35591664839676
-1030.2804729443797,424.16013623408605,85.34025380736543
-1047.166973431294,369.8429127173908,53.87364696404991
-1027.4354647101711,338.9159396939832,73.89659057884192
-1019.9711420311728,323.3469125542362,70.1362850718645
-997.0418032661512,334.7065511668103,62.592220585011205
-1047.2995365389813,331.1905696644624,57.92661102415198
-1081.684367240597,354.70522553573346,61.2569022041166
-1138.9618269235673,390.03839231541866,68.12887173499617
-1212.157056691123,433.0908108273468,59.03810169629793
-1213.1971672283605,479.17382592424536,19.62086951201481
-1216.9395257299896,513.9879571515247,15.522732023677813
-1236.7526117481505,571.9282323729307,-12.441863429407597
-1283.7819234906929,633.8770120275528,-48.67696919947179
-1333.8295952236492,699.9291297231981,-61.423217918453304
-1368.2348202495248,738.884328491381,-62.070125883966504
-1333.2279626579925,785.040763155614,-61.70139650135368
-1279.6316785038725,811.5686804362347,-76.68663610917083
-1206.528223195485,834.147236823992,-83.51700121856089
-1146.375163791917,852.6041002788926,-129.77316412842308
-1126.5620777737558,891.2115758184499,-121.75819469441656
-1108.6864525602527,886.8512692917561,-160.72155119230322
-1090.4539266722072,855.5480209857598,-183.8905232673747
-982.5026895015118,823.8338270459333,-174.31742745993793
-873.3502266319285,788.5577643741748,-129.3928099809823
-819.1553690607905,745.722545415611,-112.73778507441381
-848.1275461039194,700.0831068713578,-50.22377672293801
-932.4937669846483,662.2210438834874,-31.73672966813336
-1056.2628420510573,636.0235146558714,-41.35163384030225
-1161.1610488800968,613.443938551901,-62.469650696211254
-1246.1747895560668,598.5897324774517,-67.61768799743032
-1300.3727062758435,602.8062590181153,-76.29292367934005
-1362.3816491870314,630.2264279850918,-93.01280253705394
-1397.694421642457,618.7515614404512,-109.20140924780634
-1424.2784233147916,615.1937715733712,-97.81393238261793
-1466.9739411521775,572.9652837615292,-98.31084009320207
-1524.332978132186,538.7640019782496,-79.43171215450741
-1547.6946765715104,504.1242422233893,-79.66481928079416
-1580.9374251145907,477.72073032075184,-32.97813218581269
-1591.6546425129889,462.5748854093907,-5.61516929838426
-1579.0203586341922,400.9626121050512,37.95261378758292
-1555.8218147889445,373.77085956978175,46.241173081531414
-1516.7972753182792,327.25446508236763,70.53040538818048
-1490.3152452672423,276.71834928339445,67.17298975695066
-1456.0425833490542,237.72949988018337,63.893276501149735
-1418.160126036924,202.5105413163517,52.80559620257683
-1357.782729066501,155.37008050659503,26.39667980401055
-1311.5895846186008,127.96622699902619,31.105525332300026
-1238.3739605267856,127.40130421703641,32.20416758016245
-1211.3820723692597,111.75171949646415,36.5860920905712
-1184.0536778614512,123.21842831140096,44.806024483386274
-1161.201837528616,142.28100319681033,33.310049813137006
-1145.2432787955113,161.60768458138102,45.2577587657355
-1149.3119464852932,169.30654198936438,37.32151142337088
-1122.1467065715613,176.86977714102167,41.627569047534074
-1114.8761299730286,211.45753136902002,21.996706316632082
-1119.8523450923608,207.34501588208005,-9.46089643252283
-1138.186842601704,223.17407065613642,13.758724946847293
-1127.0719358802446,238.42290690500838,-1.824588417043537
-1161.0692744209289,258.1717508017519,13.298017161823866
-1182.71784962245,274.16701931852367,52.16592822217578
-1186.4092223134303,278.09904503576655,56.02198508155181
-1212.6465204733524,266.9066398821208,79.21451260114311
-1286.4535799686948,240.28898757475798,66.42472199986744
-1335.4917326508034,256.3892868614665,93.10834994620998
-1353.8874131329253,264.4807350114463,116.35369876563354
-1322.8982374205261,248.83624887193895,124.71945057690446
-1280.6411975547207,248.4752693325448,121.42882635762469
-1225.9538170527144,236.65777814034357,145.8357339152514
-1174.4683454594588,221.17236773006078,189.83037020797113
-1089.4240132970995,201.2766846986484,202.94494042308028
-1043.3430376326269,197.0163103608266,199.724676622496
-1004.807961944191,177.40920701768698,204.2930052566371
-986.6315204478594,157.67769829656407,177.15937654550743
-978.2963601229778,130.74189453075212,200.92284317274505
-917.7588677071172,87.50490738427496,178.42790351445194
-795.6478512030103,70.80419919136504,148.91629659465772
-702.2642798509177,43.28267043281855,181.80520361183483
-586.741649798861,50.09315107605554,179.58732084860785
-501.61166147461165,61.113122218086716,188.67503173866717
-450.4259864479715,80.3092799273962,216.84877098703433
-416.45414081261185,76.00179470053484,197.74948631795775
-438.9205284169416,91.79199828687678,213.05848582339536
-465.59528483223124,95.93745060749595,220.49425644843043
-508.0103807110482,111.70583226688015,215.88106030091828
-564.013195127796,155.08354025074823,258.0667200318152
-605.2841694156517,178.86332233739353,284.84038891976365
-642.0745106636823,214.3555648463033,327.3401212442577
-695.3679391025479,230.38346428189038,342.18616958900344
-794.5220845038826,243.0034721337052,368.13080919580085
-897.8020017029262,255.5837110532139,386.1644904223155
-1017.7236874977696,267.97530247332173,368.6284307077341
-1089.7911111337717,276.55213554067905,398.9160416656045
-1166.8612625106434,296.4559763017952,393.7705536549179
-1236.3039366144403,304.6952833026569,388.77802307617793
-1294.305394808625,297.36964202862345,384.00881034808015
-1304.5535427490531,309.3727215715867,419.13599445274383
-1316.932897574605,309.25749363952013,395.40413902810855
-1319.6657370253859,294.1198064578628,430.7352663753678
-1312.4461462375023,282.3512616438845,419.1094818312064
-1296.7629108819017,282.30129554944864,427.1937919676954
-1260.2774647815513,262.18127495118114,372.8633121402314
-1211.922521962138,265.2179898334294,322.55765220539126
-1149.7096358083547,260.0225357283068,229.31582140690247
-1081.9902821044905,259.07623908266334,183.23790489106884
-1031.6468926697703,312.8173229390261,179.8860976990104
-1034.9813646862078,347.73444550381635,187.56761993137312
-1056.4157994830039,375.37079430794415,230.3243207415377
-1047.3199308632409,398.8314052199273,265.70337475080686
-1050.1649390974494,348.9091585811669,305.07461773388474
-1043.0269256066038,325.5352235472869,293.48656268960355
-1039.7230450765553,286.74929767045836,285.8182967680095
-1035.8889121157583,302.1602687971938,281.8985076453223
-1050.9501205814424,313.9543065164965,289.48315683745216
-1054.8862251635371,340.9961607684582,281.4834831466403
-1074.3220161828965,356.55193159743646,273.2900633753627
-1058.8835127184107,398.9201205304564,265.53002299460064
-1078.7169930608313,395.0635538129739,249.5469910723846
-1098.6116563760306,441.39741909826506,221.62002314755807
-1118.455333880581,495.4688910076326,193.66858203362008
-1154.1148098484193,568.866024585358,149.7157541056324
-1181.9122738141978,646.10748828601,109.79284465133355
-1213.176772904101,700.302345857148,85.59365328629043
-1193.8837421545586,742.6409630199917,77.89061504183387
-1210.311370345633,792.7110685096338,38.229466739406426
-1218.3161426175097,827.4527998857918,22.29385162109385
-1238.5677066072515,862.1119342486987,-13.448017416752919
-1251.518102512071,857.9902413158418,-52.87432507533154
-1242.9932749715756,838.8267145253477,-25.20962816048294
-1170.756578444219,834.1533551212698,-51.58418012267187
-1097.1024763808234,798.9405148547161,-30.73903932535576
-1057.343741236814,798.9507120168457,5.178098535177661
-1068.8767316055944,802.9082306394132,4.991990129147059
-1095.3281701702417,780.0757649146244,24.29586046203342
-1056.548362590691,775.9775254546661,32.73982450683975
-987.4350568236861,759.9333105596713,29.90460554827592
-975.6563148475781,771.4836361040723,33.966645082673494
-1026.3239740380254,767.8656829804266,17.52147777273585
-1126.460106152458,757.0668882849903,19.98256285275808
-1253.598323586546,781.2270245190764,14.072083739095413
-1339.1933025039132,781.6767193689997,-10.759331677994014
-1414.009881050104,727.7714612023474,-47.01982838176136
-1449.8936945847972,692.9818031641795,-74.91222792696793
-1474.3770808583972,634.8895902270399,-102.55489897161621
-1528.6565748752123,588.8820341299017,-103.21363564519996
-1548.7653785951372,565.6478002171996,-123.0593525821764
-1570.8218402818497,523.6120387696104,-84.00146839134669
-1623.4595911957704,420.08636996323935,-25.57142347284751
-1604.07478598706,319.55560767438425,-1.3942681751668513
-1583.558095781944,265.6554480887969,46.190391214125114
-1528.493420281136,250.07112520585525,82.38939903024989
-1485.3696216342994,238.34336904039606,106.62254694518516
-1445.743449597977,219.00954964233455,142.60323352011136
-1414.2036271305699,203.5027251915792,166.67567415988134
-1388.32322964519,164.40170700494056,143.64742292220078
-1339.1729081796536,125.156908832272,124.89280233311071
-1297.7418384463606,85.97084631347097,106.02295381195415
-1244.125159967981,77.74846660174475,99.00424711802707
-1185.3691117761928,96.85091239108158,123.36730687849573
-1154.5634849821297,92.74410731493427,123.84249463374344
-1138.4417716549488,115.97436433440576,139.70418032661513
-1118.414545232062,146.9125542361561,155.5984969383021
-1068.5912110659606,165.76608729790502,144.50704368974115
-1031.0146686177238,165.2297165698786,117.59979197789256
-978.0710028399097,176.14475891359436,86.95895132384658
-920.2694090234689,195.00848913747305,83.83658027970817
-858.6418399759349,209.9728245629242,80.78456965426523
-831.3134454681264,221.43953337786098,89.00450204708031
-806.0662917510058,252.68975644078256,144.22152315010734
-821.3161477160908,256.7115171847675,147.9047381113836
-835.52997200879,253.26895524975401,183.02478420255645
-857.1234825348106,238.38313797270223,229.847093553864
-868.0844121081104,246.34712159605988,245.3549377208323
-902.1928997160092,250.62075224465033,260.5272952537309
-934.1375495199687,227.40691265620782,232.6553920044052
-946.4343073322696,219.58772873509307,212.87391718884638
-941.2174391866745,219.89976189626432,252.1972335099142
-918.2330357461519,219.68664120775188,248.6180296023617
-871.8277903259523,203.9238679875391,257.2152569939786
-836.7648483427063,199.88987064899842,269.5283302656871
-789.24097423687,188.26816496968894,309.52567900353336
-755.0774219534704,172.42279473622494,298.31695839047995
-786.3419210433738,149.3802674715627,290.0766316734053
-799.2923169481934,125.94922832975584,254.64047355620934
-788.4680293474328,117.95159407136994,235.20672196927597
-766.0832190401412,109.86422478624199,215.94632213854888
-724.5675128611708,101.59463221385491,193.04757485991652
-682.7530298317979,116.57089831899783,174.0002957177018
-675.2917663014384,139.6215833133639,162.2603029576869
-705.8190105693586,143.79630148929556,169.63896947479518
-808.4177573381329,156.54785273258454,207.30524694977393
-938.3999632902164,188.7148006709733,228.7967858544967
-1075.5150841520806,224.94633743429208,265.8675490610963
-1197.004073766271,292.0089938969985,303.0678162267441
-1311.436627186654,324.09130538971004,328.7177578479909
-1415.0907802358606,359.7477222089093,330.9692912462462
-1519.4077488235025,360.4819178822534,321.555271168034
-1570.4649396073075,341.32043052418516,297.3074393396318
-1602.2392968036997,322.0090448828092,273.3481871995024
-1597.8953057364138,295.07018196835827,293.1276225826353
-1582.456802271928,298.81967848347807,293.3458418522126
-1594.2651160182122,302.70887611977594,285.3074189453075
-1524.659287320339,298.37304278219375,294.2136203494568
-1400.6210071737037,257.98514273477696,213.79064206431352
-1288.4624209082615,237.91610794715834,231.23696675215288
-1157.9081541606972,248.37329771124698,217.45856128239515
-1103.7408289273096,259.59731406749506,222.15639387558446
-1042.0581952042746,262.9899099080726,223.0690398861997
-992.5132435643162,262.46679549081495,208.11490162287836
-966.4125873769332,292.9338765021695,177.00539939734773
-963.8133307500523,288.72754712363553,141.7374944552931
-991.1702773118243,312.01174713077353,125.55051929048147
-1034.4817037418488,335.277592246078,93.4263994330378
-1065.613639724065,350.88842775055707,81.13351654234627
-1077.5851080644259,370.1845176487384,65.19066143892157
-1081.5212126465206,397.2263719007001,57.1912936629736
-1097.3676025961977,393.3738840480695,45.1930067862114
-1089.8522941065503,404.852829457562,37.4175686906334
-1102.1806631214533,412.4741884333591,13.65950655932454
-1090.5049124828563,427.85966665477,13.78248433460968
-1082.1228452121775,427.9708157219846,33.530818373246724
-1088.842775055702,451.4477420933755,56.89863510984893
-1080.8380027838252,455.32572285133057,64.85466494674533
-1040.936507369999,455.3705903647015,104.69834245129582
-1002.1607786553004,470.58169711369334,109.1524628695834
-948.2126924077031,470.1646331825853,109.96211754268788
-901.5616953801758,469.91072384555383,122.4352862598339
-906.3971896621171,465.83185899364213,94.9045800553706
-945.5583711053215,454.38656421917784,78.65805346372105
-996.7175335104241,458.3685560308566,46.48141822130901
-1074.3016218586367,482.00557784768506,25.61639295783984
-1120.3316117124607,532.6212315112705,20.831578571683504
-1182.3711461100377,575.4829630913717,0.1346045795455125
-1236.3957110736085,622.2216557132151,-12.60624168293964
-1315.8927870373677,664.6877374026809,-92.4327879551121
-1302.065435189387,671.8961113122219,-139.34524021964688
-1261.6642788312015,640.1747793589045,-189.652939586913
-1242.4834168650866,628.4194908556949,-189.32663039876005
-1273.6867329822112,651.7332626330093,-205.57070967149846
-1343.1090127617485,683.1496994386464,-214.56562638617675
-1187.1944037974233,682.4042868869594,-161.20795582589366
-869.7394115217736,676.4715779598538,-113.26191920788445
-904.557621613905,676.7050929726258,-117.70890161268122
-1039.7536365629446,708.5600077498433,-135.53965931281326
-1155.2466948448248,724.9274726843521,-137.3251824017376
-1220.4575466647634,748.6797224332469,-134.45774041084368
-1212.6975062840013,737.0488393080207,-130.376836126506
-1212.564943176314,717.7731437340989,-122.46077916515836
-1205.0496346866669,671.3230308005283,-118.26668638118012
-1224.995283812515,651.9912508348926,-134.1987324927473
-1251.3651450801242,660.0745412551687,-118.92338362233791
-1282.2217576848363,637.1339856118043,-115.38292893087856
-1348.2483824751573,602.7532337750405,-124.10558141669175
-1436.688369626733,591.8993744041034,-117.54472730239175
-1605.9612609810692,535.3489723809864,-100.26604395996596
-1739.8296054208117,447.82061152381294,-54.88041278112302
-1642.0388205962283,208.00273283945083,37.659649319594365
-1624.4385187602293,107.0273742817374,10.791656681945415
-1537.1406137671888,32.631938531506684,-11.197503734710631
-1447.7420933754138,-14.203423187326969,21.69650186353138
-1339.4686258814174,-18.802751194342616,35.107809496617094
-1283.5575859238377,-11.00304385289574,90.86375061820297
-1236.6812316132423,-18.926544742598136,111.21534876843775
-1201.7355569944887,-19.12600123385662,119.58925830941251
-1143.7137044760443,11.377483646301235,120.35506518535892
-1071.4260221380391,33.75087313200737,89.9656865494333
-1020.5115916240511,72.1880560639974,106.2972574732452
-951.6685106534852,114.00325289471942,83.63946913573953
-896.5202184232129,148.6440323657926,111.82106019894664
-877.1180780388819,187.14851656783918,108.0572876568451
-865.0946041716591,214.2087257116345,115.99475865866532
-879.4450704368975,249.35120555949283,139.20961796332082
-905.5202337189561,261.37162027807665,162.32556479531746
-962.6671697266652,277.42909148384007,177.1145090321364
-991.2233025548991,284.964794297747,129.56616173718857
-994.9411878674166,285.0290364191646,133.43394533301384
-957.1963922440385,269.08475371304166,114.43051398795716
-923.2785915679668,237.73051959639633,99.34585204937467
-880.2904151774562,225.96809307969596,119.65248071461713
-830.0591945261635,225.6152712700056,124.33093869975988
-797.4313348595086,229.69107697327837,175.82558773893226
-832.9307153819093,210.44393345332,155.7361586270541
-864.1391300800988,195.13901281273422,147.47033900465502
-888.7051133669502,164.06010207359296,111.88632203657723
-843.5806315102508,140.25074821677129,85.16996119979811
-763.1209434414404,112.47673772389145,78.61961016249178
-663.0949406780094,107.80031917117469,76.20910300663327
-612.7005654326401,130.6592975175009,80.81149016228785
-596.0598165530533,150.15831094206484,112.39210127821428
-629.6778206625097,166.14032314806792,139.30649100355373
-740.174269500798,171.17976067260483,172.9561063156124
-820.0608770579148,183.64987024111193,199.19034532689554
-907.6004547934311,223.22709589921126,221.29269424319213
-1002.1923898579028,259.1659741094054,262.925667786655
-1086.5280192522423,321.71944547832345,261.4511581426889
-1203.9993269872996,354.0362917000199,310.60249932443804
-1303.4318549147772,385.8973247745153,324.7041548337098
-1387.3341049186013,394.4945521661322,346.96659919544396
-1452.7590971432653,387.297395134934,349.9349930914227
-1464.179918728618,387.4207807967043,353.6885684713945
-1472.1337051898458,352.6617142449257,353.6865290389685
-1480.627941243952,337.07535192955805,333.98867095287386
-1460.8454467121803,313.884965814014,353.986325605584
-1421.6271611610491,275.1398285857046,382.17638031335883
-1342.0383107381217,239.42222879372673,352.092712598084
-1240.1788582237566,180.1440859008938,302.79861114651794
-1097.0718848944339,112.52670381832738,222.75292786017656
-1001.0350119561728,88.53584047559565,220.3474173137616
-943.1518408426936,138.31430712832622,213.19716722836037
-922.1956529497842,204.2420194459882,248.61089158887086
-918.1514584491138,250.60239735281675,244.59015056109888
-910.800324269756,277.48721530797985,228.91099407035026
-930.8040972197438,308.34688706133085,201.0350119561726
-927.932576363998,323.5182248780165,169.62979202887837
-940.3669958650509,354.2830630235606,137.94313042680224
-964.4424956534598,373.53224597594493,106.12084656840001
-973.2130748012829,377.18690888325784,74.57969846991584
-999.7511892440334,381.3657059240414,85.9418863730224
-1019.4551656274059,416.1625019757002,65.90629827718946
-1040.0901429132273,415.9687558952344,26.35171031901822
-1062.7686314898565,420.11900088205454,37.77171613140064
-1091.4634457230554,427.62003334472024,-13.703354356482594
-1111.0012083637125,408.3912447165954,-17.855842718971314
-1130.844885868263,404.5346779991129,-33.838466754702175
-1142.490045020471,431.6366955076403,-41.95357232082312
-1141.2561884027677,451.25297629669666,-10.604436785242669
-1162.8843692800294,490.42741405066977,24.261190110792167
-1185.4302947489714,533.2300020904182,31.628231863072514
-1219.7029566671597,572.2188514936295,34.90794511887342
-1231.8069881152078,591.4812907567824,15.038570765755892
-1213.0544069585437,614.3739197381369,-4.380955780006425
-1228.5235019094189,626.0649661199288,-8.576720898573928
-1282.6908271428065,634.1502959726309,-17.26461125868671
-1322.1334502607926,641.9460264208471,-45.35391800461932
-1318.329908786385,672.7975404444943,-53.2503964146778
-1361.841199594153,746.2201669275441,-101.24517546766735
-1423.799156694692,781.3779425185971,-117.9903432874631
-1409.3599751189245,777.1501990995907,-145.23206191716847
-1306.7867212554747,760.5298445442634,-182.88610279759146
-1114.4172576771884,735.7956080822709,-183.84565575400367
-991.1070549066196,715.5338469303994,-178.0057410022791
-913.6279973283437,676.422631581631,-157.09034175788878
-917.1806886143587,661.081001157378,-145.3177180790586
-984.852115656213,631.1451922929849,-91.28550524389064
-1058.9344985290595,585.1488530741894,-107.93900057613966
-1121.3003421147896,562.2755987008816,-124.49409329383633
-1136.52470517455,550.8568165479547,-116.83398510194614
-1148.2004558131473,554.7806845354938,-120.94650058888612
-1166.6675164301778,570.576088674522,-101.65387772582892
-1200.1549968643728,567.2824053066032,-66.82271723779273
-1231.2257498738102,571.3215012262089,-75.15104546404736
-1244.869552803455,571.8843845757726,-24.337158968659026
-1268.0477023244432,583.6355942141303,-28.648621088751003
-1305.1347809904505,576.5720200068322,13.990506442057177
-1347.1674832894007,569.2637139084193,25.15935615118313
-1369.0607903820369,569.7501185420099,60.151427857627226
-1383.979238577904,542.9591144784407,79.64136580789567
-1403.7413387854162,512.0902652791729,71.60029163883692
-1392.7487980095143,469.37639254995344,64.05979615872903
-1389.4653118037252,446.0320292862497,52.41382123355071
-1352.3782331377179,395.16756486669766,21.744020639056153
-1333.3299342792902,344.7589135943468,26.12400768866025
-1339.7235549346617,298.8043827402834,73.27864255377729
-1360.1892593291288,244.58607169624696,49.60725630057156
-1324.0811082275804,131.6851320277567,3.4336292209877994
-1248.7546715749008,57.27613405189337,-30.508583461222745
-1148.4553848663918,14.049038152682112,-17.08656880790076
-1066.7455247204705,9.76069299913834,7.699642589467352
-1022.9079247245493,2.0721653163924483,51.55297680655474
-979.4578168895597,-1.8502546741241914,83.61407820203638
-951.4207196137315,13.655733609336524,111.45396236227458
-913.4587244369892,28.662081342762313,92.34896728240533
-897.2544140965571,44.188994202913335,112.16266513029424
-881.4600296737419,78.92266982098883,116.20685963096471
-865.9654418175422,129.0287712929492,108.42030662866526
-893.1306817312743,160.08422855919198,96.13476569470718
-973.8636537451629,207.09926427475233,90.84223460610913
-1023.060882156496,238.60747553955736,109.62255204376622
-1061.126888386962,285.3635033370213,112.81834265523906
-1123.1664227845392,308.91486899195957,96.11151616505128
-1173.723952623985,320.771109400254,79.61566895932863
-1196.5757929568204,301.7085345148446,91.1116436295779
-1211.1679319645343,302.03280427057155,114.43969143387397
-1180.5356569266773,274.7135872086799,114.99033818888205
-1173.672966813336,251.27133118853027,95.54944858845784
-1158.7749129417284,216.26549331321095,88.04148205554395
-1147.7313863551774,181.289227208068,80.47559564173292
-1155.5730040329777,181.31472011339247,76.43344057348841
-1179.5975180107378,150.3724513467902,56.554888774454085
-1182.7688354330992,131.26296951558382,80.11961271178232
-1121.137187520713,126.91897844829786,81.05744571285813
-1016.9589003380361,106.83974649854946,90.53489213951758
-892.8849301239466,136.9744000244732,107.98998638678857
-831.4480480082394,124.85813198186946,105.02669107187471
-762.2766184170946,135.85985020368832,98.17654346795288
-691.3329220477941,147.30718441057857,142.3717579397654
-676.6275945404394,143.14776197784158,122.98287386620305
-660.7781454421234,166.30959603942225,130.99070528671874
-658.9508139884671,174.49179893235714,182.0111862868564
-696.232658451153,217.58500609280438,208.77975659373996
-725.1518102512072,237.61121279947793,259.29853721709253
-766.4492971606003,276.83051806682204,282.09531287442707
-837.6479225831453,312.65926692601454,331.92884420265847
-906.9284618090786,324.80102787394276,330.8499844493278
-983.9710808482,329.2653454543601,329.6803699530421
-1041.0078875049076,322.17933749037644,352.3976077457644
-1090.1989976189627,315.0678366210684,379.1570006067312
-1146.640290007291,335.1654234626504,413.56528478124545
-1212.5853375005738,312.3910815620013,404.80490279555204
-1251.1204131890097,274.0701462782908,412.2070227855588
-1258.2788210041147,235.64723937328242,435.7767433323307
-1251.660862781888,196.69509975373856,412.4599124063774
-1202.8470476666346,130.33502776177392,389.8670799916384
-1137.8911248999405,110.38326033864776,379.13354713383274
-1046.6061295141562,132.5386344980192,341.1797096867942
-944.5243788653619,142.8285908031795,283.8053769635911
-821.94939148435,153.2776228375643,262.0578892894108
-767.5669061300241,253.37908460075562,254.68534106958035
-781.2912666404941,300.2646163572678,293.56813998664177
-808.8929450933806,308.03995248122453,273.505223496301
-856.5249091177926,304.1864449123809,233.55886056910367
-880.8461605135292,307.92574426537095,197.86063538517234
-893.8240887560994,319.244594229426,154.45641477976682
-918.7449332850668,315.1096449858005,103.0769936726609
-945.9101731987989,326.85575604309327,94.78150030846416
-1027.731182411935,334.9788153956754,66.05619656049721
-1066.490595667226,342.944838451459,57.59958803464996
-1112.184079170767,343.4394008147533,72.61185012211102
-1134.6994131533195,351.49209974864,87.94583267476663
-1130.335027761774,386.3490590568645,95.74299072568105
-1134.8421734231365,390.0771415315118,76.03972814365763
-1119.485247255689,420.83892052841696,68.31680543304799
-1112.2656564678052,447.6890681323388,48.71123166422785
-1105.0766571663107,509.2901245583355,21.138717095032455
-1133.6389082918226,536.1351735811925,-30.399677769676703
-1152.411883772746,567.3017799146498,-22.936782693376436
-1163.7511280610606,579.0315755125349,-19.22165061463395
-1186.7661229879725,613.9945853069091,-23.60897962097149
-1220.6818842316186,645.3488194235545,-8.524297288064732
-1248.4793481973968,683.9705709900935,-40.467845798514276
-1279.5806926932237,722.759556015561,-56.76311482514417
-1302.432533026059,742.3156735480517,-53.24662346468979
-1332.9832307668778,781.2413005460581,-53.83571352092713
-1409.5333268751308,816.7223261766251,-47.25283353642682
-1445.009253924633,839.9636981028182,-75.33490029724729
-1406.5557555332352,828.0595310325137,-74.71878776136602
-1278.9280743169177,815.6087960720532,-57.0664803985051
-1098.1425869180607,806.4038178175015,-62.17668622822269
-990.625748854094,751.4084830191758,-60.38066006230467
-894.942717441736,715.7439084702728,-70.60096975011855
-941.0471465791071,716.1354794960564,-67.36826541173593
-1068.6421968766092,674.5269791417049,-73.06389031932414
-1176.5995523445827,648.3131344546813,-70.6678631336899
-1253.8022668291417,629.5646321628691,-71.76110088562355
-1292.5514829223027,618.2223287259156,-76.22786578495206
-1292.5310885980432,602.780766112791,-72.25076861109554
-1276.8172617560535,587.2902571214432,-60.18925932912871
-1261.5928986962929,560.089327140257,-59.86947632473883
-1249.7845849500086,536.8907832950091,-47.840495989965994
-1249.8355707606574,509.84383046198246,-43.825465372986706
-1325.0804301162989,441.38314307128337,21.997012231495976
-1343.771828300184,387.6094282961052,49.370784110781976
-1358.2823900108601,322.30272315214677,88.61986509154502
-1362.3000718899932,260.5007826321935,96.61749934993092
-1347.3204407213475,198.48266227508887,97.05108268368915
-1305.7772022046267,155.46185496576302,82.11999000678112
-1248.5507283323052,93.08204126791516,79.26305109288086
-1206.4874345469657,46.33009233530309,80.0508838390276
-1175.9061453197578,30.58292077314884,76.63748578770529
-1167.5138808869494,50.00382393579867,92.3960781714449
-1166.9122483212923,57.87807253241424,108.07666226489171
-1174.8150489718714,69.47540699423351,100.07025844707418
-1186.7865173122323,69.4620487118435,88.1171449985469
-1183.013567324214,96.44496336669506,80.23341304115065
-1184.2372267797873,134.75549754503322,36.91495056925658
-1187.490121499187,142.66033762803812,52.53802266829142
-1172.5716733033198,169.45134169160724,33.04808471802298
-1178.5370131492407,185.39562439773013,80.0004078864852
-1220.753264366527,189.62642696537554,83.27828565310276
-1251.3447507558647,224.6822309351308,82.70194204952763
-1276.8172617560535,244.57689425033018,121.49918677632016
-1314.8322821758707,241.14249004502048,136.63993310661644
-1350.1960404419451,241.2393630852534,116.48728158953364
-1366.511499849592,229.5462772710355,92.73421606766838
-1328.302733349309,221.44361224271287,85.4846456231231
-1289.7370661744837,225.0146584205616,86.05028220646194
-1240.0564922781991,243.83454084728223,71.0325136514508
-1201.3582619956867,228.12989145120915,79.51441113937992
-1128.0814549310928,235.3025752932959,80.58776442516049
-1070.1513768718166,234.89060994325283,85.38155231399102
-989.4693906685769,238.06600623046612,78.73014739997859
-926.5314862873663,226.32499375423822,118.95907368979215
-889.0334619875289,214.18221309009706,92.08893964809594
-881.4355564846304,198.64785630159128,92.25525536243265
-866.5120097076983,186.8201679472603,80.74480072195908
-824.5323326518231,147.7711552874835,77.58072328470988
-732.2123253098664,123.84453406616939,79.04432196519708
-620.380048232577,115.27891787715481,84.67295151759267
-538.9383734506688,91.61242626177136,105.59569271871638
-445.5282894770386,87.26894505259187,134.48221359995517
-399.3412633264163,79.17443775397308,135.2011135301046
-382.5903850958279,56.21930016876304,178.70016774331705
-402.3759387762386,40.790585979921794,166.6817924571592
-444.0272672115351,49.026425945659334,185.65361259961355
-519.7881029709433,61.53548867350217,219.79779027496647
-591.6954311615078,93.3243258401187,250.0109619492895
-717.905706841786,113.85539404383762,271.59835417803225
-808.2352281360098,169.1760183141032,321.07906369657326
-926.9842402859285,212.7566498243539,330.9274828815141
-1030.8923026721666,213.59485655142177,333.29220477940993
-1168.7987233153015,234.1808874590202,350.7803378319814
-1275.6853767596479,262.2995620318866,372.6318365598854
-1371.5590951038328,270.88353311273477,382.9411674730923
-1475.498768692673,287.1622827367144,381.32899614037416
-1536.304446472547,291.71225647902196,403.95038060907655
-1543.5240372604305,284.17145508405014,419.56631469462053
-1524.006668944033,280.2220941911866,427.722004966018
-1482.5755992107397,241.0364395588708,408.85113672864844
-1413.2960797010194,228.89467861094258,409.9299964819791
-1344.7201643782537,212.71280202719583,391.38849658140145
-1253.792069667012,223.194464980396,345.6195540781001
-1151.0556612094856,229.78693029729828,307.89005419791675
-1029.8216006485397,243.76214099616078,246.86513743225265
-952.7789816094182,277.9175355498565,240.05445284577306
-950.9261572504373,328.5872341727298,283.0823981685897
-934.4495826811399,363.4911004267513,306.75918891772426
-926.6334579086641,359.5978239256016,310.81358058052444
-900.8580911932211,343.64028490870993,279.8570357869405
-866.9953551926499,343.1681563021012,256.81756767091724
-872.8944134847272,342.68481081714964,197.8616551013853
-878.5752525072274,353.84152590334116,142.79494016815121
-890.6262587122004,342.2218596564577,130.87955621950414
-926.4254358012166,357.6573039723046,94.96953597813729
-946.783050277108,357.5318788781083,63.267986519351666
-993.4065149668847,361.655611243391,50.78186740630083
-1036.1744326553921,365.74875212228443,38.35356620252584
-1047.6258457271342,381.31268068096654,38.12953455053459
-1089.770716809512,416.45821967746383,37.37963524751062
-1127.1025273666341,432.50447400488446,68.16323617137351
-1161.1304573937073,487.0032070074899,75.31889075270354
-1218.713831940571,499.0899032799173,78.34020792013584
-1249.2237410328707,487.8240785589371,89.69525780975155
-1279.886607557117,511.2744923087905,89.15674567767792
-1318.1973456786977,523.2123100141231,92.46715239148945
-1345.3421912681704,538.8272243834541,84.1587086313879
-1334.72694549107,519.1895295539252,60.83616729464191
-1326.8037505162315,492.15175416681546,72.81997420117982
-1289.3393768514225,495.4484966833731,41.97315087211229
-1288.7887300964144,495.58513865591215,57.679329842504835
-1339.0811337204857,546.1294121845891,41.057139797994225
-1380.0737254821984,569.9764955412909,75.68415310019222
-1352.368035975588,596.9857188744373,91.70654606822922
-1266.9566059765568,608.0741129743593,108.64668362794636
-1117.0583226688013,629.989853823681,95.11984214793024
-1020.8582951364637,629.2118103531789,92.63887260175494
-959.5040100340077,644.1078247923604,81.73382347692637
-968.3561664788691,674.7747701814586,42.25153339825527
-1064.1452483773767,714.2744974073717,48.53267935533542
-1157.2555357843914,722.5545930567524,27.486858407305252
-1218.6118603192733,726.9679248265209,34.40216587723637
-1205.549295631026,727.2554847985807,77.76763726654873
-1178.802139364615,715.4063824037771,74.28377682490964
-1190.9877481097012,684.4437193129154,62.43181922470977
-1194.597543503643,680.6728087573229,70.23978626748178
-1272.452876364508,665.6217974537687,49.50120581442185
-1321.8683240454184,646.8702360133176,72.37201286881862
-1384.0098300642933,597.0193695094656,67.68468335262297
-1436.647580978214,551.4217393299446,114.14499344832335
-1470.237033033707,513.3434965049228,153.016575487042
-1500.6041818561896,482.8029959262338,172.28819219611185
-1516.338403022439,436.497682694906,172.20865433149956
-1475.723106259528,397.1070651037816,129.77928242570093
-1455.30838767571,342.18413015657745,63.55187551304473
-1429.805285189132,287.5405974517292,32.721265671763554
-1401.0186964967652,209.5516817669643,-9.755329291858077
-1349.6963794975861,151.54410527550183,38.3046198243029
-1317.5039386538726,113.0294239113255,86.01214482009658
-1318.2687258136061,86.79926376489425,180.2797081572199
-1306.8988900389024,59.628925270097334,180.5417752239552
-1257.432456547343,-10.429147568231762,177.59479536844898
-1192.3031820244428,-26.47825710104878,170.7749333360526
-1105.8006556775251,-39.28191584282095,113.24458403226383
-1049.0942370738226,-20.692489280233314,78.70995701896163
-1014.603355886057,29.19631066674145,63.35976097851968
-983.832399443235,98.45849500084127,47.888524623597256
-982.496571204234,133.55019298129332,79.1871842066353
-989.8222124782674,168.46323668123165,82.88426730840808
-970.1743204866087,203.16723855750948,86.9860757751118
-965.2837615291666,195.67334410833467,118.48184650211847
-953.6151489040601,211.05882232974568,118.60421244767583
-981.9255301249664,214.7940428178838,78.92165010477585
-1035.3280681986205,234.6570949304809,89.82853471878776
-1077.7686569827617,246.55616341972032,85.22798305231655
-1104.3934473036154,258.4389164495521,92.63846471526975
-1153.4214028235942,255.23088924352354,123.31224220299491
-1134.3221181545177,231.8691908041992,123.67628089102804
-1073.2105255107504,231.25634136019949,108.89549438391298
-1014.1251089821703,219.54592037036096,149.06619487796547
-949.8707509700051,214.8633835203663,114.72317254108184
-933.338092008994,199.57783748782717,150.34389929282682
-945.4166305517175,184.0893679289054,138.44177165494844
-983.8691092269023,157.37382286509666,145.80514242886207
-946.7514390745056,148.99685417548298,107.14260221380391
-844.262821656733,140.080455609204,65.53726297971275
-774.9547500930491,131.80647825710108,66.60337628038117
-705.2387920441741,162.255204376622,71.46946204871186
-635.0588631183942,181.2341625325672,92.07986417380044
-599.4779052989554,192.77836977969034,116.12120346907457
-624.6791717864919,193.43098815599623,166.76235003798445
-662.0415738300031,205.60843917137862,197.5577796699179
-734.030479317606,206.48131624968775,231.79883038550372
-813.8079772399343,234.42663906634786,257.98106386992504
-877.5178067943693,277.86451030678165,300.0514956687554
-949.5893092952233,325.0600357920391,322.36084697628655
-1034.4511122554595,352.7269760825563,313.146691275818
-1124.97132048151,361.65765067581697,366.70524593005774
-1182.0856255704039,362.2755987008816,385.47108339749053
-1232.204677438269,339.4839216246119,388.72193868446413
-1260.7873228880405,304.53212870858044,349.16510735062434
-1292.1130049507224,273.7519948198417,340.95027353887417
-1307.4189453075212,250.72680273080005,348.64811123064453
-1296.7221222333826,204.0758057032728,333.26773159029847
-1247.1741114447852,145.62363294295199,330.2820025186991
-1208.9959364308913,95.03306429820582,331.024355921747
-1132.3030800528215,78.89462762513195,324.37886536176984
-1070.508277546359,39.8338882289059,337.2099544696712
-1035.1547164424142,39.73711716029429,357.3626059867539
-1004.5418160126039,66.4775432996997,345.9570801445958
-967.1253690098048,100.65639132629391,307.15585852457264
-948.813305257147,100.2681853640132,279.9600271244513
-911.6426098616756,118.9376596493196,237.28286417889905
-909.6439660842389,145.4757740920702,178.35346423090456
-913.797270219698,160.8785874891018,166.46561262000787
-929.5121167779007,214.9888086145626,146.42512988635264
-952.5791172316744,242.21421178486028,142.06278392723306
