acc_x[mg],acc_y[mg],acc_z[mg]
1.4934967598517335,626.6054157128071,696.654820963326
2.992153283741135,684.9097296222462,727.8775116884972
-1.1615995268516772,700.3115233030649,715.9896600776005
-12.613175753187889,715.8764715779599,715.7653225107454
6.872000122365947,727.3676535820082,719.9430998353159
-12.504066118399251,712.0413189009499,719.7044862414791
-7.886464796847038,685.1697572565556,747.3367561807551
-15.729734414912333,685.19525016188,743.2946011125105
-34.94179969714429,654.4630429351513,750.9598078854656
-38.82253368887439,650.6238113932893,750.9139206558816
-27.234886531078406,654.4028796785856,751.075035817532
-45.766087297904996,662.4606771935371,770.3935594723989
-15.838946021322267,689.029383122677,739.3554373817768
-16.411516674909375,685.0239378380998,723.6620048640465
-23.054355972732793,662.1792355187553,758.9605012924903
-22.94483845145896,639.0357563490081,766.8898145646068
-31.36025044230191,615.7454380445923,751.1433568038016
-39.748945868364835,615.6342889773777,731.395532623271
-19.500033140776925,619.593847032371,759.1573065215952
-34.8858172770518,584.9622450072145,766.8928737132456
-31.550631459264892,588.6648345765374,751.2320721143307
-19.581610437815158,607.9874370962561,759.1960557376883
-30.869257085753038,608.1454931092678,766.8755385376251
-19.93626773668888,615.622052382822,747.3908011400428
-15.946831996655332,634.9364971728369,747.3857025589779
-11.547980197111146,635.0435673751995,763.1494954954037
7.691311508007323,669.6445779139667,755.4720521278929
20.451224424242735,685.3033400804557,787.0067760142354
5.527647055824365,716.4413943599498,794.5271830849475
9.081215297782629,712.4736785752526,786.7447089474999
16.598226713505632,666.0245853578949,790.9388017314782
25.05167411909266,572.469701682022,720.7374587652257
-8.009564938077734,448.56704379171276,681.4141424441578
-13.15464506227917,522.6453477997075,739.9570699474338
-2.1532837411348424,778.2973798391909,782.4302896503904
10.224388552665793,817.0323199053704,798.1828657084734
-12.922761595447989,774.7232745127031,805.8286978733819
-13.031055457266243,739.9387150556,809.8688135092004
-24.863332534555635,701.3414366781726,809.8219065634034
-33.52357838813459,643.2329082816252,794.1896570184518
-45.49300729606951,643.2196519708566,782.2365435699246
-46.419419475559955,608.2301295549449,762.7171358211011
-23.816083983827305,573.16412842306,755.3252129932241
-28.677988915684768,545.9081337663729,731.7962810949714
-5.884731279284975,557.2331020277057,720.3254934151827
-10.174432655392005,553.291898864546,708.5008642094906
-5.748385024447697,557.266752662734,724.2524205513607
-2.303977403088721,557.1352092712599,712.5307826831794
-17.799758327257525,564.9574523410135,708.3479067775438
-0.6685657181606359,596.1638276067771,751.6695303696982
-11.956682455272698,615.6312298287387,755.3598833444653
-27.288931490366235,627.355926845559,755.0906782642392
-22.945246337944152,658.3451025579582,762.8996650232241
-11.685539914241868,692.9369356508084,747.2531394512908
-14.829630913716715,677.6972768478533,770.8055248224421
-14.584185221252929,673.8967945220846,778.6716156893538
-6.604120673216644,654.5966257590513,790.6298277189459
-10.539582834097272,662.329133802063,786.6203035695166
7.936828580606019,665.8440955881979,763.3371232785917
0.20271856342379915,662.0354555327253,763.2341319410809
4.356074704409763,665.9419883446437,771.1328537268079
16.025248173433333,681.3284862822677,771.2552196723653
11.98064578627768,692.8951272860763,763.3065317922023
16.161176344623293,700.6714831262461,771.1919972671607
30.56578954077081,711.8853023203643,739.9733854068414
30.593729765006405,677.1354132145025,747.9404281788379
33.247643180902756,661.356324534882,716.6361601566285
37.237486807421504,661.3614231159469,720.6201914007332
29.63968327614425,657.5864336955026,724.4441271994006
56.66868910382241,645.8056522869687,728.813611172011
61.53140980865026,634.4439742419686,760.3218224368159
50.62554491085132,630.8351985642396,779.7933035236296
35.72912258518455,665.8410364395589,787.3014739997859
38.68252665283252,673.3094379834092,759.8476543977812
19.30608311706852,677.292449511301,755.6199109787747
19.71509129009397,677.3954408488119,767.3996726710957
23.59582528182407,681.2346723906737,767.4445401844667
15.698123212310016,673.5225586719217,763.4278780215467
7.391423166932643,665.7074536156589,747.6314541663056
-8.294718379874881,646.4490932173577,743.5362738549862
-19.773113142612413,638.8348722550514,747.3153421402825
-23.79048910688156,654.2713362871115,739.3533979493508
-45.604156363284105,743.6015356926168,758.3486715647036
-63.481107207864056,767.2701687120475,793.3218785212076
-53.09070885572546,639.4446625504123,786.0594596523789
-67.89158377223619,410.86813539791876,739.5134933947884
-81.169716467907,398.941534570929,692.2598440853911
-54.50862424987127,631.3654509949881,746.8197600607753
-32.792237920186814,882.8539817368827,765.9200644460648
-66.40973217153666,879.5266477339356,796.8246037127868
-78.75747579448641,709.495087517144,808.9867589849746
-72.44002794022424,647.2964773903424,781.8194796388166
-51.11776192685576,584.8765888453245,743.1028944644706
-49.144916969607365,530.3085151402365,700.1453095603495
-53.65206263096981,495.4168854807708,688.4216322597422
-61.19551528809533,499.379502684403,692.220075153085
-67.10385299771075,561.6800844325026,731.1681359077769
-50.76351251446723,596.5513197677087,750.9179995207335
-42.34810052362428,619.8406183559117,766.6634375653256
-42.07532643665268,619.9089393421812,774.5172918376817
-22.67175844962347,619.7947311263276,778.7327986621324
-27.479210535707917,600.275323377504,755.1783738585553
-19.036164235493267,608.1240790687953,774.9017248499744
-27.20613053387243,581.0342981548237,767.0213579560809
-20.28929348962184,546.0192828335875,751.5451249917149
-18.626340289497435,569.6083779884059,794.6607659088477
-26.824654698597385,596.5778323892462,774.8242264177879
-41.475631331800365,627.7831879387968,790.1974680446432
-41.58555673955939,670.2370330337068,778.2790249473572
-64.2696537553599,655.0769120953639,793.6889763578797
-64.62390316774842,643.4021811729796,785.8738713016169
-83.53657976985006,635.9164444535087,797.3895264947766
-95.66957115834664,631.9997144794604,781.52274222084
-119.58110057970869,635.8420051699612,757.6042787292298
-127.04236411006818,632.1016861007582,765.354121947862
-123.2714535544758,639.7750506034172,761.4598257304992
-135.26739508394814,635.8929909806101,749.5189488765278
-143.49242605782814,620.3749496515121,737.6749450627891
-166.50334211988806,597.4089011028232,745.25653510628
-147.72628777411248,566.2422947693658,737.7942518597075
-148.0536166784784,558.4363671590197,729.965890492676
-163.35751760285115,535.4111750699781,737.6637281844463
-144.6905926080772,527.3890676224808,722.2721316657576
-143.9003125430193,562.3439196871511,737.864612278403
-127.86119622908946,631.8957034257368,741.7945985632199
-116.90026665578972,643.2420857275421,722.2976245710819
-88.52758077427053,661.6979294662297,648.0918560364652
-62.37104413841628,641.9745784748105,628.927309529758
-63.59786471425003,622.3572779695412,597.5781739941775
-59.63565539710299,637.8029194475179,597.5853120076683
-94.56266920915911,661.1799136300368,585.2100360469682
-109.13206854532385,703.9916791157023,600.5455481739432
-116.26702288753042,727.3666338657952,612.1336032182245
-119.92984352454714,754.4778288202394,611.9877837997686
-108.94240132970995,769.6919947178701,592.4775534968619
-156.7385396644114,761.935013485747,548.6165000280423
-103.85401742695008,803.7331810557123,510.0222807992537
-74.06341615128511,830.2682363498241,475.0572315724534
-10.381934707570885,840.889600424202,421.03062717645685
30.69743490386626,828.6479072874021,386.36537451627214
60.87093961750446,812.7984581890861,371.172622659114
60.842897421647564,847.5483472949479,363.20557988711744
57.12419633615965,924.8499742521657,351.1148047498382
53.978065904258855,1006.1570464939608,354.7184818465022
77.15121881580357,1110.2670126903683,335.090984179103
84.03919789122688,1148.6185394604681,303.66842907618815
97.38024707723841,1163.4248188729077,241.02420296431507
124.13617290308109,1151.5757164781044,237.5398326645695
157.18211621705683,1112.275853629935,198.92114024666938
191.04587193384083,1092.493359098163,179.87284138824165
197.52616846731559,1053.509608276017,152.62908332611036
192.3918973349717,1026.1914109303382,121.24731687171462
207.26037943640287,1006.6210173708658,109.76225316494421
187.9663289706475,983.5917464169722,113.47503989639685
195.23792528539312,960.2514620181205,105.81391198829367
179.27834683607554,960.2341268424998,89.87595152269125
160.52882482805038,956.6508440700953,105.30609331423065
176.05196473821337,972.0067505213301,105.48658308392775
180.25931383296032,1002.9602361662751,109.3696624229477
214.694110629012,1045.1071466810788,94.04475534458761
209.47622276720392,1064.1044597288576,50.73169736862232
204.7498381200512,1094.8183120637527,19.160365670233976
219.2909913171165,1106.0657818928994,-8.13211443255342
230.93309132068546,1117.57837793742,-7.996583950686524
219.04523970978877,1109.8591262051773,-15.997817807304228
206.3671080338342,1105.810852839655,-47.571086966497234
214.10063579305884,1109.6143943140626,-47.46809562898646
210.2206156026778,1086.4668362794637,-43.52342543070264
201.50510113035543,1059.2404133929529,-67.10986932336732
182.70153416304245,1086.538216414372,-59.63443173764741
155.7545135188877,1071.3138533546116,-56.06205992872184
156.65390321873423,1083.122167100896,-32.54067393044516
153.8099147007388,1071.8237114611004,-1.1481902586510175
135.2520993407535,1037.3878949488358,26.162349018268216
150.63961699459043,994.7821121381921,34.38574844620742
123.82923832297473,979.583241983756,41.884741476447104
124.07498993030242,956.4734134490371,53.7401661117711
120.71298557611418,948.9030402838891,69.41391810659096
105.95463282568464,906.7051439584366,96.80747248040872
82.15282486883902,868.0935895540272,84.80735011446315
66.71177211382073,864.3440930389073,84.5887229584007
52.08842978998945,880.1099254077591,103.93967358884025
33.175039386538735,911.2418613899753,107.47604941544769
29.376698464817242,880.3903473663281,115.37273176874878
56.21420158769815,899.4570011165894,107.86048242774037
44.95367939102548,903.4838604416393,115.52772863312143
60.72144922068188,934.3486307760551,119.58415972834761
45.63464587805215,942.2738651833197,127.18104551503318
42.62648304976725,946.3772032243428,150.67020848097977
37.07280263902556,1001.0431696858765,201.42250411710424
3.308917928140599,1079.7774979223284,322.31394003048956
-20.693916882931482,1134.7911876124876,396.33717936298336
3.2181121993749144,1111.6436295778888,424.24579239597625
36.236635344383664,1068.4790422825329,385.63933657263186
83.77009478262201,974.7640631612223,331.7228615276369
93.7494455293092,943.3833164230394,292.73197269199983
100.14765490763922,931.4098086502528,257.5466647631964
111.51718476747922,923.5488163644059,253.81858228854915
108.29080266961707,935.3214400432362,269.4294177930282
97.43857484462076,978.0689634074838,280.896126607965
112.33295773786156,1020.2974512193257,257.42939739870394
120.23065980737562,1028.0167029515687,261.446059561624
157.5390168915991,1008.0975664472579,230.67510311880207
148.66034782520026,976.9686896136807,203.1753962872133
171.6987962250106,984.4931755492447,199.56967975812333
159.92005424890255,972.9418302886307,195.50815008183227
164.48328430197878,957.643027945323,219.17576338504995
171.64475126572276,938.1368765072682,207.5744520300001
167.51999918422706,899.479434873275,207.64379273248258
175.25454665966464,864.6693825108473,215.72606343654562
178.29024182569992,864.4348477818623,192.22466387604334
175.19948198416384,876.2421418119338,211.76140680048746
176.5638622771283,876.5837467432814,251.02659929741557
157.86838522839096,900.0474168039035,262.44130258549046
146.41697215664882,896.3019991536357,266.20711456001794
146.79834602030257,911.8455333880582,274.0099830217251
135.07466871969532,908.0317947515208,269.92296044010953
120.17865428051374,904.41894020894,285.4104102828183
90.49665278153091,912.6684443719314,316.334324157587
57.42450276088166,909.4777523415235,362.9455522528081
16.317600811694106,937.1599883752353,393.63289196616586
-5.384866391683195,926.1083040589805,436.5160375867396
-23.261868222073797,949.7769370784113,471.49026425945664
-26.679447109869326,973.0876497070867,479.20951599169956
-52.07191038733921,965.9690108242877,525.948208613543
-59.58844253644211,993.1097775489083,525.7442653709473
-82.46373634217598,989.4877455604106,533.2636527254465
-101.86771221569039,1008.9112999852143,525.0579963596132
-83.14623240352212,1027.9351256545306,505.65075739421724
-103.6408967384377,1047.085396134256,466.0337628038117
-126.95364879953911,1078.1153604951742,453.80532597778046
-128.15385478221413,1100.9773979901395,414.464674481092
-144.469314189861,1166.5247561603608,374.7528462828795
-140.20690041961325,1205.2229864428732,378.610432716575
-132.77316922700413,1205.090423335186,370.87282609249854
-141.1338224572102,1189.5397510872726,355.10189514258184
-142.19636675113318,1135.2092712598085,335.64570979896297
-147.65694707163,1061.453197575115,304.41588106030093
-141.69466637434803,987.5829156745679,269.43349665788014
-119.44445860716962,921.5338571275615,258.21559859891
-124.30544579443543,817.0394579188613,250.64522543376182
-148.97849928364937,731.8666415136668,223.0914736428852
-158.29258717298976,638.8369116874775,195.79265090525308
-163.69912253419875,592.1349288493013,160.54819943609695
-199.06186108406033,592.2318018895342,140.39452820280118
-229.8368963917342,658.1350410180847,127.9376749450628
-310.5168431625479,790.1250681935218,106.66129616127833
-391.5241188377275,933.6195336837759,73.56640646907967
-512.3462140486304,992.1277908358105,20.53922593342273
-532.922047794099,980.3633248866842,-15.050909331932926
-508.2928421020431,956.3948953006379,-77.3950329623266
-449.4725517888372,939.7602647183289,-154.94995742684813
-411.920482529712,935.3540709620513,-181.844972544141
-394.18047957253503,950.2694600092796,-228.72540571958828
-403.1407259359721,888.2248270306374,-252.1982532261272
-422.86917550845607,803.2957228003448,-248.28254296829198
-387.5054172423815,745.2708111332616,-216.15944282706127
-387.1495362840522,699.0175034287959,-196.3749088628635
-336.4818770936049,683.3261103434915,-175.94081567099877
-313.6881605849092,675.3417323958743,-183.42145380940488
-273.735679360434,702.4335527422719,-147.59270495021238
-253.8155231399102,756.5152218137692,-139.6277016106418
-217.69003686274112,826.1241096602815,-111.84859253669704
-210.31137034563284,876.18605742022,-131.53013516338405
-199.1607735567192,875.9943507721802,-143.13654509949885
-176.25794741323492,864.175839863766,-146.67801950717117
-168.76813182891203,833.1662698271072,-146.46183967001986
-180.27257014372904,783.0645531348626,-134.69125542361562
-184.48093895468892,790.7297599078178,-146.55361412918788
-188.19882426720645,829.4126944471356,-150.66409018370192
-191.15294213620354,860.5629853211852,-131.1905696644624
-212.88411435097618,884.2611901107923,-96.27446681588515
-217.41981206630194,903.4298154823513,-119.9543167136586
-221.98202240316522,918.7286178256593,-143.6229497330893
-222.0095547409156,934.170180438784,-147.59984296370322
-228.39909653143533,902.6680874712569,-214.30763818429335
-243.3216235921543,895.1864296166377,-198.80693203081586
-261.90697128989007,895.5066205075128,-179.46393518683752
-246.8202699188816,906.8907323091985,-191.04995079869275
-251.2203453778814,926.0930083157858,-210.80389327650116
-259.11804744739544,937.6902408059839,-218.81070498080385
-271.08747635533035,956.9863307041651,-234.7529482545008
-237.007540801395,987.4636088776494,-257.8933682756089
-196.22908944440763,1029.2097709207528,-312.3676280891028
-159.6039422228794,1047.7482116726917,-370.75147986315415
-145.8265564693346,1047.2179592419432,-417.63905105209227
-146.78101084468193,1046.9732273508284,-445.1244818566993
-125.26907761569956,1069.5701386304193,-495.89819153329637
-138.16746799365737,1131.1100120836372,-547.3194210051344
-174.40410333804104,1200.5017003767853,-606.9656814508523
-192.10841622776383,1184.6043246164595,-669.9708871021196
-206.28655045300894,1160.8653311783332,-740.7463302962786
-241.86750827244782,1168.6253715590954,-768.7783289910418
-271.37809547602905,1175.9265396440173,-843.8121070905968
-299.0338188882034,1175.9571311304064,-863.8495306756131
-301.76971748762327,1218.75462058909,-840.4878322362887
-296.20002753233774,1269.352939077055,-801.3286902255103
-295.9267435872597,1250.1108941381615,-789.4857061279847
-282.374715116783,1204.1828759056355,-722.4097933545095
-270.1574951690945,1103.8529977107373,-682.6418807645832
-245.88926901643276,995.8252818240685,-626.9694544008403
-249.68669219356255,907.0447094573582,-607.1033431396042
-245.66799059821656,833.6802067984481,-587.1729897569508
-275.075586464287,764.7606471119088,-532.4356431605084
-256.57079634737653,714.2153538670188,-543.7616311380543
-256.6799059821652,698.7401406188658,-543.7116650436185
-234.2675633371233,675.2132481530391,-558.9951716437316
-235.33112734725927,659.4984015948362,-586.4296166376898
-263.8862404592802,647.7247581997931,-629.9888341074679
-277.24758199793,682.1187663473256,-689.17418282492
-313.0742914246965,693.6854073511344,-725.0712526703819
-328.59743133485955,697.6388471088496,-729.2418919814617
-323.20823114927117,716.3078115360496,-799.867436892313
-322.8819219611182,762.7324315642958,-800.0193746080466
-337.7789561165128,817.047615648565,-796.5013536732728
-329.20110333294247,902.1684265268977,-788.8106539949933
-336.71743153880277,909.9988273263551,-785.0244476962063
-336.30852533739863,890.7924724549159,-769.2555561787156
-299.38154211682894,855.3349002972473,-807.8293810832447
-295.99098570867733,789.5366919386336,-807.5560971381665
-289.1007632575854,750.6528733053592,-823.0200935079769
-319.40978825592845,727.8499793507467,-803.7739697042314
-356.36226438182257,720.8200557784769,-757.2086288385943
-388.0173147812964,745.0189412286562,-675.3468309769391
-386.2185353816034,787.9510332274529,-632.2944124650111
-378.3473459336267,772.4849974252166,-624.2753641661526
-343.63926519249696,776.0856153732417,-623.7675454920897
-343.1202296400912,753.0441078247924,-604.0584705276523
-323.1164566901032,702.8761095787044,-572.1933585883049
-313.6902000173352,676.2135897579705,-517.0165143040692
-311.9169135229666,618.7301473999786,-454.00213120688517
-306.53587106708204,584.3269618065293,-402.78586469385573
-305.9893031769259,565.1542575701184,-383.0900460401871
-284.9229859330149,607.9374710018203,-339.74802812377317
-302.80065057894393,650.9164699464139,-308.7639509924388
-285.9151698082424,705.2326737468962,-277.29652837615293
-281.8169303482841,720.7119658599013,-273.3634829426971
-267.3308418267197,743.5321949901343,-304.6198243028965
-263.0133633809711,751.3422014653323,-292.80845140797317
-289.3618106081078,782.6026216903837,-281.5344689572892
-320.54473240097286,848.4038891976364,-305.7710839073486
-342.9580947622277,910.5504937975761,-298.4668566737877
-371.4326502934234,929.6915868313849,-346.0539531848287
-383.784472781225,952.7545084203067,-373.7892144616154
-391.9279264580668,968.1512035200604,-389.66109731661686
-395.40006016325657,983.7243095246595,-381.91635267904945
-374.85175875553836,1030.2396842958606,-354.2932601856904
-362.4744433624123,1088.2819311385642,-342.529813952777
-391.74845640458267,1135.2500599083276,-307.8054177522396
-394.89428092161955,1197.2488056573857,-300.21261083040594
-391.34158963560446,1212.5955346627036,-311.98523450923614
-365.3755359883345,1204.4072134724906,-339.0403450719665
-346.95334288467524,1161.5689353652879,-354.31875309101486
-336.7816736602204,1099.335654887245,-381.42892832924605
-291.0310860487527,1067.9691841760439,-388.4863842392663
-267.91004063569113,1048.4722101839059,-384.1495311854711
-241.15370692336327,1036.6231077891025,-387.6339014852167
-251.92292984862317,1033.0541010436798,-364.2354932622252
-275.07048788322214,1029.3627283526996,-364.569960180082
-313.4138569236182,1018.1234162532568,-357.25655550060424
-332.29900118796945,975.8877904279241,-337.7738575354479
-303.7153360219851,952.9115447171054,-286.2486170098862
-304.1242422233893,952.8085533795945,-298.0283787022072
-261.87230093864883,952.4475738402004,-301.31900292148697
-256.76454242784234,937.2843937532186,-261.94470078977025
-248.67513371028846,914.1500920293884,-246.04732502944435
-260.18059174131844,902.667067755044,-242.2560201495924
-260.23463670060625,875.6201149220173,-238.2413974190983
-271.76660735317364,821.6495949177345,-226.45755686192535
-291.06065781892903,798.620323963841,-222.74477013047272
-294.69594611819537,771.6722836034733,-210.93441695176236
-277.70033599649224,764.2252961000954,-163.55942141302077
-268.60242794430314,768.3765608031285,-124.19021786236891
-252.61633687344818,772.2637190070004,-108.26530976429261
-258.93245909663347,776.534290506952,-69.12849953857842
-277.51780679436916,776.8534616816141,-49.78478889325101
-303.6184629817522,765.6947071629966,-22.665844095588202
-310.72588498620837,754.3197728072279,-3.110797265121117
-315.042343715744,746.5087466158169,-14.922934947204196
-307.0630643491917,727.2085778527836,-2.9644679885587846
-325.5117700743883,727.562419378687,20.305710920650785
-363.50027787266805,708.6874722764655,39.423452453182286
-377.5784799090414,724.5899466178564,74.48048008239309
-400.72603794364034,720.8995936430892,74.14621710777892
-419.69479893745574,763.6042889263919,73.71803826994947
-452.2767713745265,791.4313246623466,128.0804352148797
-474.2251431426634,822.7998348059737,155.1182106019895
-489.50355116171175,842.2621384468703,154.82453233265184
-469.28155894214643,861.6622393987755,178.60941300036203
-450.91341079777504,830.3926417278074,159.36634834525555
-413.16963489061,814.4493787378974,140.36291700019885
-363.1291011711441,787.0149337439392,145.1290705796577
-339.46250758413936,806.28349130437,157.19333309539957
-327.4400534331296,852.6530466571154,161.1416742720501
-302.46618366108714,922.4536411516675,200.52617356589664
-271.4494756109375,987.9153431599988,192.92011033329425
-252.1554251451821,1010.9446141138923,189.20732360184164
-230.58842724069893,1002.6522818699558,146.38740038647245
-223.07311875105162,1014.1302075632353,138.61206426251576
-243.67648483427067,1037.112571571332,95.05498819678485
-252.72136764338487,1098.6320507002902,43.69198452070789
-253.78595136973382,1179.4649549030505,-3.6921272809777044
-314.20617642110204,1194.6995151249407,-83.14092987921462
-324.094364538349,1155.5933983572372,-138.1022061560268
-298.2649528636181,1128.0610606068333,-165.09409431355255
-236.49972212733198,1085.1310080404626,-152.25076861109554
-205.86132879219718,1038.5095827831117,-147.70997231470483
-187.4942003640387,1026.5483116048806,-170.94216679498098
-194.52004507145662,1065.3994993193396,-159.40407784513573
-217.5064879444051,1142.8469456950131,-171.78343267068777
-250.93380512203456,1205.2229864428732,-148.94688808104706
-221.28861537834024,1255.8824879036167,-81.95561175324909
-184.48093895468892,1267.73159029842,-22.574885409390568
-118.47980706969253,1240.3216184935734,-1.8706795898701394
-84.94266645592533,1154.8082168732442,-16.778308596717533
-87.23141949595428,1061.5449720342829,-63.59337796291293
-100.9982002008841,941.3612191727044,-102.64055513350635
-95.03428795766139,828.8691857056182,-129.64366016937487
-114.87307082438959,767.0845803612855,-133.657263183656
-164.06825980329677,798.5917719098776,-114.87714968924149
-193.50746687196954,899.5875247918505,-96.03595519366962
-234.31548999913326,950.5162313328201,-61.49745325875809
-256.9460519137524,981.7134291526669,-54.092376091733676
-289.66364660714925,1009.5068142535933,-3.656192481632362
-335.3591695431162,990.6910106917246,15.345913232347439
-396.8235839965738,979.6291292133401,22.311798626442265
-403.03059658497045,980.0645480362816,65.38818046937538
-372.9938358154926,964.1814483029374,46.26860344766052
-330.8234718277904,952.2130391112155,43.01601464312483
-338.0644766561466,863.5660495684052,74.60355982929951
-344.2072471231257,789.6447818572092,23.740828927309533
-293.3754136223889,758.5485359424473,52.079456287315246
-220.4320537594388,738.604926249025,49.314801690689485
-201.87321868324048,715.1065858371617,33.973579152921744
-213.62442832159812,688.1146976796358,33.88863679238069
-228.49189070681635,649.7519540311931,57.34302743546472
-209.8514783335798,657.1693697643947,37.97412979967675
-216.98745239199934,699.8536707234377,45.572545160681784
-248.14386156332696,788.8330877516788,17.33334013144142
-221.30697027017385,846.5184339198403,1.842188718879536
-210.210418440548,857.8984668566738,-13.72843937532185
-187.88067280875734,861.3838568726325,-36.953495842107145
-184.59922603539437,818.7291276837657,-44.60962714076673
-196.8684515099448,795.4694008657392,-60.41339295274126
-201.56832353556007,849.3542647081317,-95.98721275868927
-213.0207563235152,903.5368856847141,-104.19052377723281
-220.34639759754862,919.1395634594894,-96.50390296380519
-251.20097076983478,915.509373741288,-96.95380175697105
-215.8117195984358,957.8999964309933,-84.79287014423886
-226.79916179327293,942.6848108171496,-65.28304772781736
-220.56359715091295,907.4995028883463,-100.39248877037522
-221.3263448782204,876.4124344195012,-115.99781780730424
-233.27028088083088,918.8866738386708,-135.94244721693954
-258.3634574497917,954.3238516720797,-89.34284388654639
-274.1588615888199,958.2089704435257,-101.36641972539043
-277.3301790111812,958.4098545374824,-81.79143744295963
-277.4403083621828,981.5543534234423,-89.7204448002121
-278.77715631739693,1043.0065312823442,-140.96760871449476
-282.54908658920226,1035.3382653607503,-137.07433221334506
-290.4457689425033,989.0044000754591,-133.1117150097128
-283.47600862679917,1019.6550300051497,-160.5828697873382
-326.30103042323327,1073.934524021965,-184.95510699372366
-402.57886230262125,1051.5619503092291,-158.5495556586602
-429.82669922960446,1090.32136356452,-174.78751663412075
-423.2678845477304,1198.105367276287,-229.99699183717175
-473.9906084136785,1225.372578811317,-254.3967613813076
-501.228248178532,1162.721214685953,-360.55839659822675
-484.64052454202,1135.8618896361143,-320.9730132104236
-504.2068392366405,1074.1486644266902,-317.1327619523487
-559.572331020277,1027.863745519622,-349.2028368505046
-525.5464404256296,1069.9168421428317,-376.30791350767083
-509.45022000377304,1031.3511749680065,-348.4635425960956
-490.2907720781307,957.7980248096956,-336.15556790545196
-499.3886801303198,992.2654525245625,-383.5030311064431
-453.72170924831624,1065.144570266095,-414.461615332453
-403.5720658940617,1053.183299087864,-409.7454278474301
-395.15430855592894,979.9248469151037,-374.0512815283507
-356.6110751377892,955.4608352495502,-479.3553354101554
-298.26291343119215,935.8425150280677,-458.7927579754555
-301.75952032549344,793.0710283328151,-419.11661984469725
-319.244594229426,750.1899221446672,-470.2543682093274
-264.9416467397124,761.4475891359435,-461.6296084799601
-274.12215180515267,784.3096266309087,-508.9393421810711
-262.3444295452576,815.1692983842598,-508.86694232994967
-253.95624397730117,873.2095057945374,-501.088547057354
-227.0918203463976,915.454309065787,-512.6021628180878
-253.54835749211,931.2405357588984,-501.27821427296794
-268.47190426904194,943.0682241132295,-489.767657660873
-248.141822130901,958.6331723881245,-462.0436132624292
-265.6360734807503,939.9173010151276,-407.29708922007006
-272.5793211749171,932.4448206064253,-383.82832057838306
-304.3954867360414,875.5028475575249,-289.9216348090327
-327.3248255010631,864.1432089449506,-282.377774265422
-317.164373154951,884.0093202061867,-215.5741257208119
-307.139543065165,884.5314149072314,-148.70725477099725
-316.6269827107116,889.0018507849267,-89.99515634798836
-328.26908271428067,858.1758296666038,-86.1409349777957
-331.440400136642,839.0673675516106,-62.57631301208874
-324.3044260782225,777.0737203836173,-66.18488474657504
-324.93053183299094,707.4026298481133,-69.88380333753118
-318.4777676372666,703.166728699403,-105.09399234193127
-277.50862934845236,733.378880657513,-151.67768809940196
-266.90154130105594,694.4308199028211,-171.0104877812505
-272.11738973043805,655.5000943237497,-202.35452473576606
-248.99838374980246,713.2496826133288,-213.97725013128846
-258.1880662611596,818.204993550295,-167.37316004955824
-286.0365160375868,887.7078309106577,-207.2715963147456
-312.3564112107601,884.2183620298472,-188.0305710920651
-350.23682909046414,900.1279743847288,-172.95304716697345
-372.512529762967,923.6895372017967,-153.74363314689523
-375.330005659425,954.8744984270878,-130.34318549147773
-409.4384932673238,920.5294366577782,-107.19052887581387
-412.3650787985704,955.5485308438663,-87.72914297950881
-392.3888381863328,978.7491141215401,-71.80974134898258
-431.3063074546354,1002.1220294392073,-88.16996629837917
-453.60954046488865,1041.120056288335,-72.93713959405099
-505.7863796505433,1080.6034680548405,-30.681119444458613
-559.7079532766031,1084.8862761493476,-31.50321465536142
-567.3517460090857,1107.1364839165262,-145.50636557845954
-553.3561409859636,1098.9379655641835,-184.51560930593018
-551.4655871271026,1071.38523348952,-235.41474407672348
-546.2395415355907,1066.8372991796384,-305.96381027160146
-581.7664543957418,1043.7305297935586,-326.0410027889239
-554.6012144820097,1031.983399020053,-317.7456113963484
-545.6399484023597,1055.4062804321559,-286.29348452325723
-517.6028511265315,1109.5328170170244,-266.4324718430861
-466.9627242738347,1109.2778879637797,-249.97527188183534
-432.3362208297431,1081.969887780231,-245.4395741665095
-352.5852355289523,1050.1547419353196,-271.60957105637505
-299.07256810429664,1045.7699622195144,-282.56744148103587
-221.5669979044832,1029.8317978106693,-265.65442837258394
-217.79506763267784,998.8864698954283,-261.56842550718136
-203.7800880015092,980.1043169685877,-186.72737377187931
-186.42859692147678,945.7133679696941,-123.5579938103226
-169.10463817919475,888.1452891660252,-56.38561588309973
-139.802073083061,787.114865932811,-79.15353357160703
-129.08689511708894,782.9513646352221,-102.52634691765282
-124.28097260532395,860.3988110108958,-90.94216679498096
-126.70891690842441,882.9610519392454,-165.62230731187515
-113.58618896361143,944.058368556031,-244.12414025176795
-120.28470476666344,971.4040982394602,-220.76957982593447
-164.40068728872757,1041.8032661510304,-174.5723565131824
-217.9959517266345,1092.5137534224227,-175.54618549657633
-192.60399830727113,1099.6415697511384,-222.2848781184197
-221.63022030968781,1065.5728510755457,-163.73583231786594
-271.36891803011224,961.7749180403094,-132.73340029469801
-273.0035231195159,864.8172413617291,-159.9037387894949
-238.81141878215297,794.9126358134532,-159.15526708916912
-207.84773597507817,814.0180387798076,-158.75553833368176
-165.2715249346107,956.62841031341,-182.14680854318243
-184.893924020945,983.7212503760204,-198.23079237048333
-180.54891323744604,918.1626753274564,-170.47207762079813
-149.6657880111965,906.3523221487461,-166.04548954026097
-143.82179439461999,918.4074072185713,-111.05321389057426
-147.90269867895768,950.2714994417055,-13.106820371890505
-137.85135596763422,973.9717436637384,49.757766413607094
-145.85714795572392,950.7854364130465,45.791478231608146
-163.4237991566947,857.6782081546706,2.6715850978672635
-185.52410864056534,725.8115666410039,-52.15930006679142
-198.52854950467287,656.0242284572204,-79.59099182697456
-211.6155873820316,613.2501924714353,-114.96382556734463
-226.70330846925302,679.1034655055498,-119.33738840480694
-264.2849494985546,756.8782407855895,-108.38869542606294
-283.19966553308217,845.9392351108688,-116.8217485073904
-309.22078385585297,904.3149291552162,-101.7097581743001
-313.12833638398433,896.6068943013161,-101.7422871214941
-313.64635222017716,881.0297094318653,-113.47096103154495
-309.57564509796924,911.949544441782,-113.51480882870298
-301.6779430284552,938.971004369484,-113.48727649095258
-285.4471200664855,977.6763726654874,-97.6765766087298
-268.75232622761087,1024.2233586392908,-70.11109808140395
-284.24793380002353,1012.7342160676685,-70.30453824700587
-304.08753243972205,1008.8776493501861,-86.28716228273673
-336.52470517455,1012.5741206222309,-133.8805810342982
-384.34735613078885,1000.9483360780697,-177.72837819234908
-411.92150224592507,1012.5914557978516,-197.80455099345855
-404.4061937562777,1043.3838262811462,-209.5690169425849
-396.4819790652262,1074.2710303722477,-209.5547409156032
-371.9975730754132,1093.7476100401261,-173.93197473143226
-372.10668271020177,1058.954892853319,-169.8918590956137
-384.5665951165791,1047.2383535662027,-193.58700473658183
-347.3948800048947,1027.2825072782246,-228.28386859936884
-332.58044286275134,999.9847042568055,-239.74445911702776
-310.25069723096067,1003.4690745565509,-262.96951558381306
-275.76083575940817,1014.7389781423832,-270.34002437121757
-221.45890798590756,1064.6143178353466,-269.6945440084025
-194.456822666252,1068.2750990399375,-269.302972982619
-179.2059469849541,1025.64076417533,-265.00588886112996
-183.05843483758474,987.0465449465415,-257.0837136025044
-176.8779348707255,944.1236303936615,-292.1680696262231
-170.28852870246214,901.3026874620795,-315.4726639576206
-197.61590349405765,831.9089597365054,-311.7231674425008
-245.16527050521844,801.0421499696636,-343.72798050302606
-277.68402053708456,793.1322113055937,-391.2844855276777
-307.694268685025,812.8851340671893,-372.17704312889725
-342.70316570898325,843.9660842387564,-388.5047391310999
-382.4098953261308,851.6924739844902,-424.4476962061459
-386.5907317993403,863.2264840694836,-436.3233112224869
-374.59377055365496,847.7991974833404,-420.39228482713264
-375.0302090928095,824.5180566248415,-428.1696603835153
-355.49040701972643,824.4374990440161,-420.0272264228866
-343.54749073332897,801.2726058337965,-404.07172683842094
-320.2367781046535,847.4851248897434,-407.80388817792016
-318.9549948249403,855.5296660939262,-372.49009600628153
-341.9934432247506,848.0051801583621,-368.8853991934045
-332.6508032814468,848.3559625356264,-321.6511244920539
-355.22630052056513,848.6720745616497,-306.2911391759674
-344.76503189162463,872.4742904049805,-231.64689266977
-340.88501170124357,876.3135219468423,-231.602025156399
-320.66301948167825,876.4042766897974,-203.8269949473062
-300.4960919376138,868.7574248086759,-176.02647183288892
-311.61915638877707,834.1992423508539,-156.45403884099056
-319.38021648575204,826.52077926713,-156.54377386773263
-319.5443907960415,861.2370177379636,-168.4377437759072
-338.8669933157603,872.957635889932,-172.6909801002381
-339.248367179414,876.7234478644594,-184.48399810332785
-332.22252247199606,857.1836457913764,-200.0112168783428
-307.1028332814978,864.2339636879057,-254.60274405632916
-322.2445993280071,864.4215914710937,-246.98138508053214
-329.5702406020405,880.0242692458689,-239.2947642671045
-338.94041288309467,875.8046835565664,-286.5157826576864
-331.996145472715,863.9678177563186,-305.99542147420374
-362.3337225250213,856.6054666986179,-290.72619090107224
-366.8684005241342,837.154379936064,-306.4267614322934
-370.33951451311106,833.4181397317128,-294.6928869695564
-359.29700764277305,837.0615857606829,-310.23744092019194
-359.48871429081294,848.5986549943152,-318.1290246924281
-354.817394319161,887.3927386008475,-302.49167656641157
-369.49722892119127,953.3490029724728,-295.08445799533996
-395.48979518999863,976.9748079109585,-272.0062406632234
-398.79775458489905,996.4503678626239,-260.34680548403384
-417.3565896610973,1019.9507477069133,-245.0061947759939
-417.30254470180955,1027.6903937634158,-245.03168768131832
-436.3233112224869,985.4160187219898,-229.47489713612703
-447.2567084580362,977.9384397322226,-209.99015973854478
-450.50960317743574,966.5329138900646,-190.3779578143403
-478.65682980426556,974.1716080414822,-226.1465434169671
-466.7965105311192,978.0189973130479,-218.13259369917353
-479.0392233841323,997.2467662249597,-241.9286912452265
-471.2241183278694,1051.2764297695953,-249.84270877414818
-478.85057588473137,1120.872061305339,-261.96611483024276
-475.16226234239014,1174.86603478252,-277.79109073944727
-491.3655529666094,1140.0325289471941,-293.6150469324387
-462.20166927544074,1116.21195821203,-336.2687564050925
-424.83824751571643,1065.4096964814694,-359.08490667047363
-372.2249697909072,1029.903177945578,-389.5744214385137
-338.4438110873744,1017.8236196866412,-412.5751403384439
-294.6113096725182,1048.75773072354,-376.7015239658803
-260.85768330673574,1071.4260221380391,-407.66928563780704
-233.5292887989273,1102.2010574457129,-403.4395027863746
-202.86540255846802,1098.0610096210225,-406.8902224510919
-165.63964248749576,1066.5415814778748,-437.6234493940337
-218.76889661607177,1047.8501832939894,-410.88445085732644
-263.3457908664019,994.5587942875499,-352.5026385157011
-301.225189029893,952.5393482993684,-325.4556856826745
-304.61472572183163,921.790825613232,-305.7802613532654
-302.1327364594434,926.274517801696,-235.11494751010795
-319.6555398632561,961.6189014597239,-192.32561578112814
-335.37038642145893,1015.7281028689716,-212.3671182309963
-315.1229012965692,1096.929124624617,-200.56390306577683
-260.985147833358,1162.211356579464,-207.8222430697537
-215.152982924852,1161.752484283624,-218.90757802103676
-167.57608357594083,1196.4840184976522,-186.91500155506725
-184.662448440599,1235.804275670081,-132.3591644445351
-220.1964993142409,1217.5411582956465,-42.56366853104781
-230.2009350797673,1148.5063706770406,16.388675031738668
-198.90788393590066,1059.5565254189762,48.554501282293145
-191.06218739324848,924.3686681996401,80.52505187806234
-176.89832919498505,726.9791417048637,85.3277112979458
-152.87381521722506,545.5175824568024,149.0937272157159
-89.77255229869529,499.0613512259539,201.2155017258697
-59.544288824420164,471.6401625427644,189.98740650476975
-62.71601413326672,471.84104663672105,209.56187892909406
-43.74898665701336,487.0643899802685,198.02073083060986
-46.59358700473659,495.07120168457124,225.4235646219657
-27.272310116094697,521.969275950503,221.6975215797444
-3.688935569231084,568.2490962765063,225.81921451260115
-22.138548841857315,587.9133037275727,245.10000866758784
-22.248066363131144,611.0567828973197,237.17069539547145
-61.110165041069074,622.8579586301133,224.77502511051176
-107.51479863154086,619.3124053575891,220.16692754406452
-149.87584955106996,623.5085375739933,219.51838803261057
-166.29939887729248,634.9599506457354,187.8368250115993
-177.5336123956703,681.4732859845107,187.51153553965932
-190.10263443683627,692.8951272860763,155.88809634278783
-217.37902341778283,766.4044296472292,131.68411231154371
-267.2309096378478,878.8475167360925,114.8587947974079
-289.0161268119083,952.7361535284731,137.83096164337468
-308.7751678707816,960.4859967471054,121.81121993749142
-304.7299536538981,929.6089898181338,133.74903764282402
-304.48318233035747,887.1898150744648,149.59440787628805
-281.1163853099683,863.901536202475,161.79735179699492
-285.1605798106387,856.1598507135466,157.83779374200162
-273.410389888494,863.8423926621222,161.91257972906143
-274.1731376158016,852.0646704022272,142.31771298047755
-281.3080919580081,856.1302789433702,157.89591756614135
-335.7476814202608,902.7659802277027,133.3758215088741
-363.1862052790709,953.062462716626,109.24729647739036
-358.9798759005369,1003.3263142867343,109.14022627502767
-353.5998531608654,1026.854226468774,148.38808359633515
-360.4890558957443,1065.7360056696223,163.85207996614545
-352.9197024468091,1104.2608841959284,152.06110139548164
-406.48743454696563,1158.836095914507,151.075035817532
-452.97425726420346,1182.309963137259,138.52538838441265
-491.8641941947557,1190.2331581120975,126.14195469400867
-534.1701804387839,1202.1740349660693,125.46894199344324
-591.5353357160703,1187.2759810944615,140.357818419134
-658.1064889641214,1133.4553593734863,119.91964636241735
-712.1636848465073,1099.0807258340005,123.15010732513143
-686.6340697383919,1048.3090555898295,92.30675103118803
-610.4357757236162,981.8429331117152,81.89850764532233
-560.086267991618,934.1803776009137,-11.377381674679938
-521.6246118705164,917.4213416406214,-120.63446742771488
-507.7646291037205,909.1881529370378,-163.56961857515057
-447.20062406632235,927.7480077294491,-198.04622373593432
-410.16657064339,965.6926677305706,-248.63944364283424
-397.81678758801434,1000.558804484712,-232.8736112739825
-400.41604421489507,1024.070401207344,-201.5948361570975
-377.32253113958393,1000.7178802139365,-197.24574650874663
-386.17264815201935,915.5287483493345,-212.7892807431692
-406.3915812229457,799.5819163526792,-216.62647285260513
-436.9443183961904,684.0317539628721,-185.29671192507126
-488.53787990802164,587.4952200802517,-209.29165413265488
-524.3900822401126,537.263999428959,-233.20705847562624
-568.4224480327126,522.7279448129586,-167.09885638826717
-582.6923567171257,608.0955270148319,-151.9020256662571
-583.5672732278607,696.699688476697,-195.3847644200619
-575.887790427924,712.0810878332561,-199.24642971860933
-573.2344888417554,734.9217112877487,-238.52997710737102
-560.8021087731286,781.3942579780048,-222.80187423839948
-494.20444290354004,858.3991475172461,-206.3660883176212
-400.38647244471866,912.087206130534,-177.66923465199636
-366.46765205243383,861.4226060887256,-188.76374704919624
-319.92576465969523,845.693483503541,-176.24061223761427
-327.33400294697987,888.3094634763146,-176.4945215746458
-319.3547235804276,888.3176212060185,-168.52645908643626
-302.9576868757425,834.3787124043381,-128.852360388104
-320.34384830701623,869.7567466973943,-82.13671335267397
-339.9652276771375,858.2308943421048,-90.24100992693735
-318.53385202898033,791.9758531200767,-125.018227427307
-270.21052041216933,733.2167457796496,-163.34222185965646
-316.3435016035038,749.0488597023449,-164.08661469513038
-341.9006490493696,795.9547857831167,-133.23102180663125
-356.79768320476416,850.2699698673861,-129.7119811556444
-380.136947887403,896.7363982603642,-145.91731121228963
-387.18828550014535,835.1700121856088,-114.41827739340144
-444.2811765485666,858.9661097316617,-99.65523394839218
-475.0827244777779,882.381853130274,-104.12016335853733
-455.62449970173304,890.0052515384969,-99.92984352454712
-480.0344664079987,867.6846833526232,-21.727807151269804
-467.04634100329883,774.2715402303539,-72.23822610167592
-419.02280595310333,711.5753085916191,-118.4023086375062
-437.52861578622674,839.3579866723092,-123.03589910927789
-465.8777462232261,959.9363697083103,-76.77168044133319
-465.004869144917,967.8789392911954,-53.237649962015574
-457.8974471404609,959.9455471542271,-68.80290415177457
-446.9100049456237,955.8503668429078,-84.32298491329864
-467.267619421515,955.7259614649245,-116.02433042884167
-463.14184762380637,975.0740568899677,-112.10352158994152
-462.5708065445387,1017.698194592445,-104.3893684387635
-454.56501455644906,1098.8155996186263,-112.39210127821428
-464.7917484564046,1191.925887025641,-93.23652827418131
-518.414545232062,1316.0049558207952,-110.15688333936667
-576.4109048451817,1463.1500053535103,-146.8432135336736
-608.2219718252411,1536.5185868772721,-190.73791763752152
-616.5836447716601,1540.281339703161,-210.4989981288208
-621.5527218775015,1458.9283802317816,-225.99766484987228
-599.5757980554013,1354.1933279968187,-237.08911809843323
-558.4118939699082,1218.3875227524181,-243.8641126174586
-486.91245226453486,1109.2574936395201,-269.89644781857214
-425.79983990455463,1012.0999525831962,-264.72954576741296
-383.3561919717743,961.5811719598437,-252.14930684790426
-371.6039626172037,911.3356752815694,-236.10509195290953
-359.93331055967127,868.7931148761301,-224.0132970994173
-343.7555128407765,841.8328379212065,-196.2076754039351
-373.60158667842745,826.8695222119685,-165.2072828131931
-365.5672426363743,815.3059403567988,-153.27354397271242
-406.75561991097885,831.3817664543958,-122.54745504326148
-416.6540051903556,893.6782693376434,-87.58464919212985
-450.51776090713963,952.0794562873153,-76.51511984214794
-476.1829982715811,964.20286234341,-41.61879948810246
-526.5783932331633,960.6522104898208,-50.21092829865449
-557.4319466892365,918.4023086375062,-42.68134378202547
-563.0016366445219,829.1781597181506,-73.8606965681451
-559.7181504387329,689.9766994845335,-61.568119592317466
-540.8044541204184,620.2250513682043,-57.124808165887444
-563.6236635344385,585.7219335858831,-41.65183829340295
-555.6719165056365,601.1716539287117,-37.66015917770085
-577.4296013419466,621.0010554062806,-2.7314016509205494
-584.3198237930385,659.8848740395549,12.732686493348902
-578.748094405327,691.1809843320605,55.88136621578215
-562.4356941463191,741.4927625641785,71.65454054136734
-565.308234718278,803.558809583293,87.10058990582921
-588.26510582105,788.3303676586806,94.65729887372345
-584.3840659144561,734.2415605736925,106.6714933234081
-570.249779486369,629.5299618116279,91.53829289308787
-566.6940290517149,548.3258809073435,99.71468340360879
-567.1294478746565,486.4260476309443,99.9169951002636
-567.2375377932323,432.3321419648912,107.9471583058435
-583.4408284174515,378.1862307719762,96.11324968261334
-606.9697603157042,339.6440170700494,91.9661658160534
-633.2335710971638,285.96309647025237,123.15112704134441
-679.0657360056697,247.80429606440532,142.21574135917976
-747.4173137615802,198.3888483834949,180.60499762915984
-818.7790937782016,211.00477737045782,230.51398795715156
-911.1531460794462,207.8844457587454,233.06531792202233
-1041.2424222338925,185.95748803108097,262.5871220039463
-1172.1229981696094,187.00371686559632,264.54803628150285
-1280.896126607965,199.20360163766426,235.40556663080665
-1389.8833954510462,180.45305991342613,206.36404888519527
-1473.8264341033891,157.14744586581557,122.76771374526471
-1483.3097948840839,137.45366664457285,75.59686539236131
-1453.5136871408688,144.67937572973443,44.621761763701166
-1412.4701095685073,167.18757169879626,1.989935400977908
-1397.459886913472,205.58498569848012,-17.537997175386092
-1415.9371446926323,240.6887163302453,-2.234667292092611
-1446.4674481091915,302.7924928492401,-6.8260924984576805
-1484.6252287988254,337.94313042680227,-3.591562868053821
-1501.7054753662057,377.25726930195333,50.96460055166648
-1455.9304145656265,407.6794827999368,31.924561394563895
-1378.890854675144,461.1432038463696,21.124339096429466
-1258.3400039768933,499.1133567528158,46.34967088659227
-1150.2602825633628,525.3618717910806,47.88016295065084
-1060.75979055029,532.6202117950576,72.74400534331296
-918.9947637572465,531.3139553262329,51.3241524883625
-946.4322678998436,504.37203326314295,43.15479801971112
-974.7140970667865,454.04801843646914,15.428612217219948
-1002.0424915745949,403.9626172036323,15.188163134199753
-1002.9408615582284,353.5325518908088,-0.353618208052699
-961.0978264748921,333.75923480495385,-11.433975924500213
-922.1263122473017,318.12290639515027,4.900980457138779
-875.7751117863899,294.6225265508609,13.523782331377179
-829.4239113254782,271.1211269903586,22.146604599939838
-813.2461136065834,244.16085003543517,49.952226295421994
-754.4900654147951,243.95384764420066,78.30543559727329
-723.1164566901033,224.5435495301658,98.46389949677007
-672.6394844314827,220.39024539470668,111.00834637720322
-617.7094114707878,224.08161808568678,139.29017554414608
-571.8232016029939,231.35933269771027,128.17934768753858
-544.6304293515116,242.7913711614058,132.47337266038863
-509.70412934080457,258.0330693967869,136.86936925453648
-518.0658022872235,281.09905013434764,113.11813922185458
-487.2938261281886,292.4331958415973,109.61643374648837
-491.17486603478255,307.90433022489844,105.58141669173472
-510.41487154125014,331.23033859676855,101.29014495265969
-518.3401059485145,358.2691337000913,89.30633804612178
-560.6471119087558,370.20185282435904,88.63230562934336
-583.4683607552018,374.3174274599379,96.12589416365427
-614.0231373608725,393.9337082489944,99.52664773393566
-647.9684703746948,421.41913905360144,114.62426006842297
-685.8488882543988,437.3287514084831,129.70178399351462
-719.3302503913162,434.0360877567773,164.5322306802017
-741.4417767535297,442.1907583119618,191.64648478328485
-787.1383194057095,442.68532067525615,206.6587468707459
-810.259364818771,442.86377101252725,206.3110236421204
-833.1611712460423,435.3729357119914,213.84264759117542
-863.9616994590406,420.16998669270345,217.3576093773103
-863.116354718482,424.2447726797633,240.90387645118366
-889.218030622078,432.3953643700959,264.033079593949
-890.8087879143235,483.19762610065624,318.782662784947
-923.2551380950683,530.3686783968022,373.08255112602166
-978.849046310412,593.1587239271312,423.057823007857
-987.2749613782486,671.2730647060923,497.2360592047234
-1058.5266120438682,718.6735531501585,543.1039141806837
-1129.2133399274983,770.0794868788017,604.6662213905871
-1236.038810399066,825.2461340009077,622.503097387997
-1350.7466871969532,876.5684510000867,636.3100549117181
-1499.0032274018142,850.2077671783944,587.0822350139957
-1585.281416181877,773.2487648687371,558.5770879964106
-1655.8967639305984,673.0606272274426,542.159656967466
-1687.1612630205016,592.0900613359303,545.8887591583264
-1693.7180382699496,522.9227106096374,593.118954994825
-1613.3949921736782,456.49533734761616,590.621669989242
-1487.7557575726678,258.1737902341779,589.2481122503608
-1347.3306378834773,125.22828896718045,556.478512030102
-1229.012965691648,19.748130095394455,546.8330163715439
-1137.4322526041005,-50.70569460519138,536.6684851605798
-1081.9189019695818,-67.17421341640622,474.7615138706899
-1063.6353902708877,-71.43112071910389,447.5779190651242
-1060.5966359562135,-13.737820764481247,412.107090596687
-1060.8719593337175,5.503143275226505,400.26410649916136
-1088.7713949207937,28.65015066307047,368.37146222206366
-1112.1432905222478,71.24787771563174,352.17836875997415
-1131.1304064078968,110.08346377203226,351.7633442612921
-1144.437702987259,171.52544446880435,288.5623530971331
-1140.124303406362,353.12058654076577,264.46747870067765
-1157.184155649483,415.6138946531181,315.0209296752714
-1173.8769100559314,349.7585821865775,291.4450908312217
-1110.6850963376892,271.43417986774284,241.63603269210182
-1084.0093202061867,247.9786675368245,238.18939189223644
-1057.6394589385775,104.73097337011112,250.84203066286653
-987.3718344184814,-19.159447925642297,303.3329424421184
-959.0624729137882,-3.5849856984801134,339.0260690449848
-966.8245527269762,27.355926845558884,330.9560349354775
-920.2021077534124,61.85149872790403,335.4621608806269
-882.9773673986531,126.87717008356576,284.78022566319794
-866.6649671396451,196.49829452463382,296.56406622037093
-867.8937251762835,254.11837885516462,249.2553522354729
-856.6340187525813,308.0205778731779,229.6196968383699
-865.7329465209834,361.797351796995,178.2820840959961
-849.6377458153397,381.1587035328069,194.15600638342352
-855.3736495133406,403.88817792008484,135.12361509791828
-878.8485364523054,411.7012435439218,122.97267670407328
-898.6891548082169,427.15402303538934,102.9994952404746
-937.1701855373651,454.49873300260543,98.40648947397939
-953.8109344169519,473.61943171215455,58.84649701987938
-973.4873784625739,454.35597273278853,50.767489407697845
-996.8256234289998,442.89436249891656,46.53199614547272
-1042.5170675001148,404.76921272809784,69.52384351434996
-1082.0922537257884,354.6022341982227,49.47724248341687
-1140.1345005684918,300.92029388221266,52.71351582854493
-1177.1094104510717,265.8563321827536,-6.591333431905901
-1212.6873091218715,235.00379844289338,-26.643349155929908
-1178.6593790947982,180.50506544028798,-33.79900373725992
-1165.4030683260848,145.08930164735156,-88.42560915297274
-1175.2331326191922,113.71977178751155,-143.41186847700288
-1191.5995778374881,94.2900990654301,-167.1386253205733
-1234.5398275659886,94.48058205401438,-183.48161706597057
-1261.2869838323995,87.01982838176137,-176.00811694105533
-1303.819347075709,106.62254694518516,-184.56047681930121
-1341.2021434434798,153.54988706642945,-161.73107024315135
-1338.285755074363,200.62406632234251,-87.27802052688737
-1302.0858295136466,223.91132547811947,-47.568027817858294
-1212.1672538532528,250.58098331234422,-14.914267359393882
-1114.8251441623797,277.1231766199467,10.002070023912347
-1021.0622383790592,323.0736286091581,38.72392713107942
-923.9352888091246,357.2851075545676,55.76185547562115
-873.1320073623511,360.93773102945454,76.13364400687288
-879.9936777594796,365.0716605568671,99.56458117705844
-937.4679426715546,373.32320415228446,106.52465418873929
-990.5166392193054,385.5516409783158,129.2367934003967
-1013.8283715641937,397.2681802654322,120.998506115748
-998.1420770599543,377.90784824583324,133.07296579361966
-970.2406020404524,374.0706561363973,160.9764802455477
-931.2425751913244,381.61247724758204,173.30892812530277
-908.0114004272613,358.29054774056385,181.58494490983162
-858.2981956121613,342.3605410614226,174.53360729708925
-804.621353877216,303.25646372614506,175.46970678060296
-732.8231353214401,255.99261725461807,145.30752091692884
-651.8994763757247,216.74883879816247,154.50128229313782
-591.9605573768821,146.32825684611973,120.31529625305281
-549.6260190788904,99.6443229849133,128.95637144182774
-503.166728699403,72.30879046361399,141.51825546950286
-467.63981583925204,56.80553501960405,169.57472735337757
-452.1717406045898,64.42393681838345,169.7807100283991
-438.83793140369045,64.77930791860626,221.00003569006745
-447.17207201235897,53.09590940841164,205.21584842938213
-456.8787506436959,84.54538501934913,252.0595718211622
-482.8172719532155,96.59924642971862,279.1034655055499
-504.875773072354,151.1107258849862,298.21192762054324
-535.1582854491595,190.1046738692622,305.47536620558503
-579.9829707392433,256.46984444229173,332.05324958064176
-624.6720337730011,361.48735806824965,354.57674129289825
-707.7054855633678,455.26453987855183,384.4136376846324
-753.1032513651452,556.2429575849042,387.3177894591936
-809.843320603876,649.6418246801916,397.92691693901594
-877.6799416722328,712.3502929134822,428.09624081618097
-950.4061019818186,743.9339631780476,434.74886938964886
-995.938470323709,767.6403256973585,449.6856724773496
-1030.5354019976241,760.2045550723234,453.1170175340203
-1045.2703012751554,741.1848082678591,476.50828774352107
-1078.370289548419,734.1263326416259,523.1317524332978
-1131.1711950564159,723.2439212167254,557.6991123370366
-1190.019017707372,678.082729576359,647.2363141337767
-1219.968082882534,647.6442006189678,678.2866728189546
-1282.4460952516915,609.2967527137198,661.7825659119068
-1309.1422657074538,551.6450571805867,681.2000020394325
-1361.0356237859007,509.09943762650863,637.3950329623266
-1431.7121545074008,478.4120979131509,605.0435163893889
-1497.8203565947597,451.7342823492222,592.3694635782863
-1502.2153334726947,413.00750001274656,584.5849500084128
-1480.3730121907074,366.16479633717944,557.5971407157389
-1388.272243834541,330.59811454472225,555.1722555612773
-1313.9655233948395,330.30647570781053,587.6838675796527
-1247.449434822289,357.0872826092499,612.1376820830764
-1175.844962346979,340.6708712965182,570.0947826219964
-1099.1826974552982,339.97236569062835,559.4713791151922
-1045.8617366786823,366.43196198497964,536.6327950931257
-1032.2179337490377,385.1774051281529,481.8291669428399
-1052.5204835494283,431.4092987921462,442.1234570419053
-1138.5335461141167,451.06534851350875,401.5224363059761
-1168.8089204774312,470.74995028883467,412.7760244324005
-1197.5853120076686,485.95391902433556,357.3493496759852
-1217.2046519453638,474.428066669046,349.2446452152367
-1243.9314138875152,470.8366261669378,356.70590874559616
-1326.3550753825211,432.4657247887913,320.2796061855986
-1361.0662152722898,390.24641442286617,327.75106687808784
-1351.4910800324271,339.45333013822255,280.9705658915124
-1325.2027960618561,300.4553032890947,269.7220763461529
-1286.3414111852671,250.03543513840103,290.09702599766484
-1244.4718634803935,214.8205554394212,282.99368285806065
-1183.2990878638477,183.3266202015979,276.1666828121734
-1153.207262418869,175.18010737611723,257.0225306297258
-1108.3091575614508,159.0400391571026,222.42763838823657
-1055.0391825954837,158.4526826184273,203.604696812877
-1022.0717574299073,146.1681614006822,157.04445452830478
-995.3195025824314,153.6294249310417,149.57095440338955
-946.7249264529682,152.86565748752125,107.13036561924817
-939.3727725573973,179.75047544268432,91.45110715687825
-917.070559263357,217.98575456450476,60.259211861339004
-916.7442500752041,245.10102838380084,64.09721974374533
-917.6171271535133,275.77715121881585,32.58370595463283
-906.684749634177,302.56407641753304,9.109390056747209
-917.2367730060726,310.63003166218846,36.396424874957304
-917.1551957090343,341.54578780725325,32.368749776937086
-937.1599883752353,372.40443984439133,4.492675888300287
-956.2358195714135,380.3245756705909,8.104826826694133
-982.583247082337,372.96732319395517,27.358068249606138
-1021.6944624311054,369.25861532735445,11.086354667496037
-1066.9494679630661,373.72395262398476,37.8656319946159
-1129.4784661428725,366.2575905125604,13.406514966884718
-1203.101976719879,347.41119546430235,4.518036230517048
-1233.734251757736,336.11070039208096,11.946485293142919
-1226.3820978621652,324.3768259293439,4.246975266783255
-1222.7213166575743,297.2666506911127,4.393304543345588
-1192.4969281049086,250.53509608276022,-2.84548750082852
-1158.6321526719114,211.44325534203833,-17.90489106881555
-1112.5001911967902,176.30179521039298,-13.170654606822923
-1066.2254694518515,160.50435163893889,-8.499660944359187
-1053.9072975990782,152.88299266314186,15.258421581273932
-1080.2465673802983,164.8340666792432,30.52183977199146
-1113.3771471399511,211.83380665160885,65.1887239781169
-1108.298960399321,250.73088159565194,92.60593576807575
-1071.986866055177,270.1829880744189,136.25550009432376
-1000.3844330122929,297.24217750200125,196.10570378263733
-924.9611233193802,339.711318340106,252.03713806447666
-857.4885409390569,328.1120464174821,311.95566273905973
-823.4891629659468,327.67356844590154,292.84312175921445
-785.0631969122994,292.59125185460886,297.46243620400446
-754.5349329281662,269.1071874697272,294.0739192282788
-758.8238593199513,265.16496459035454,282.24929002258676
-790.2790453416816,253.66052627553756,266.1183992494889
-791.1243900822402,249.58676000469072,242.57213217561556
-800.6577169573709,222.15435444315847,195.42555306858102
-805.5197238608496,194.89734007025845,171.8976408865413
-814.2617509547093,144.49276766275946,152.31297130008718
-822.4592495908389,132.84352964569962,140.45571117557984
-838.445340661694,109.64804494909069,128.52095261888618
-841.5626131247675,98.276577628446,152.06008167926868
-825.0574865015067,117.74051281528354,179.7147853752301
-819.8406183559116,118.05254597645477,219.03708198008496
-811.5340100849934,125.8676510327176,234.83452555153903
-802.1097928446515,157.13418955504687,278.0409212116268
-790.1138513151791,180.32559538680385,285.99164852421575
-747.8078650711508,187.70120275527321,282.67553139961154
-740.0468049741759,195.37966583899703,282.76628614256657
-725.0967455757063,206.73012700565437,267.2533433945333
-733.4308861843749,233.66491105525333,243.4898767672957
-737.5301453605463,256.8043113601485,231.57653225107452
-737.9676036159137,291.4522288447125,211.82972778675696
-764.3690760861253,314.9750424456874,223.12920314276536
-795.4439079604147,357.63283078319307,206.8208817486094
-820.9459907307797,392.96701727909124,241.64113127316668
-870.7152799375934,459.08847567721904,236.7485328832986
-903.5695166035292,506.1565366358543,279.2676398158393
-974.7140970667865,569.0322383280734,325.0855286973636
-1042.7108135805806,627.8382526142975,351.34118174911924
-1106.7285974313352,686.6483457653736,381.58086604497976
-1152.4526724212653,721.8927972345297,388.6260853604442
-1186.8273059607513,726.0970871806378,395.9466280534128
-1183.523425430703,725.9308734379223,380.2980630490535
-1175.4574701860474,718.2360948947909,392.2185455787655
-1148.679722433247,710.2568155282386,388.72193868446413
-1128.8360449286965,694.804036036771,408.6941004318499
-1150.3214655361414,676.0830660827093,459.4555735138912
-1161.5791325274176,641.491232989859,475.1020990858245
-1202.6533015861687,576.4945215746459,525.7259104791137
-1241.0864056533069,534.3394533301383,537.0671941998542
-1264.315540984944,480.4239980013563,544.74973614843
-1280.5698174198121,476.4685188112149,520.9719934942107
-1296.885276827459,484.08579892216,493.22959420393306
-1363.6155058047348,484.28362386747773,456.90832241387227
-1410.2981140348643,499.97909581763406,440.45724074989937
-1441.1547266395762,496.34890609943255,440.00754589997615
-1417.2729729316334,527.2565045147936,455.9589666195898
-1351.6542346265037,580.8446309392097,448.9117078716993
-1262.1741369376905,622.8528600490484,465.80942523695666
-1198.4214793023102,669.2458688746923,517.627324315643
-1108.3805376963592,715.2595432691083,550.2184741986306
-1034.236971850734,711.06545048513,578.8153956753836
-976.1875869945396,687.508986249127,591.5383948647092
-961.4271948116841,633.1591318136163,584.0934467937574
-1024.3661189091079,548.3523935288811,563.8133307500523
-1099.2642747523364,502.15109135127693,523.6008218912676
-1151.4329562082874,459.5371508109294,471.94403797423183
-1194.424191747437,413.37153870077964,463.60581850071134
-1237.191089719731,398.155333370723,455.1676668383189
-1285.5970183497934,406.69035807334825,501.5086701371009
-1343.50670208481,391.6617805264795,500.6928971667186
-1387.2015418109143,322.1467065715612,476.72446758067235
-1391.5761243645893,267.9804010543866,472.9168472414128
-1363.6359001289943,205.22706530772487,402.90415177456117
-1315.4237175793978,169.61143713704476,356.65084407009533
-1223.7818215190714,184.13321572606347,330.50226122070234
-1147.0991623031312,187.30351343221182,319.86662111934254
-1073.8223552385373,175.16685106534854,324.9295121167779
-1028.047294437958,205.58804484711908,305.88937098805405
-1001.2093834285919,224.6546985973804,298.37814136325864
-970.6005618636335,232.08639035756354,290.96276506248313
-967.5648666975981,231.85083591236562,267.4613655019808
-965.1032717594695,266.2295483167035,220.28623434098296
-957.6144758913596,293.14801690689484,208.5340049864123
-950.2623219957886,300.7234886531079,196.8449980370463
-954.9336419674405,300.54809746447563,173.22735082826452
-986.7161568935367,300.5470777482627,145.27896886296546
-1006.4476656146596,331.47405077167025,125.25582130493085
-1022.6835871576941,350.69774081873015,97.47579448639445
-1049.6040951803116,358.6433695502542,97.04578015938166
-1084.417206691378,358.8768845630261,92.59879775458491
-1092.1568527478803,374.37657100029065,88.5060647621767
-1168.4010339922402,355.8677020185283,114.89856372971404
-1238.995987416702,336.7867722412853,82.50870582716831
-1277.2251482412446,302.40194153966956,97.75050603417071
-1282.0891945771493,275.1459468829825,74.22188005078188
-1306.0525255821306,251.94128474045675,54.31803928966569
-1310.8655861073864,232.42187699163324,30.764226315816313
-1327.1198625422546,228.46639780149187,6.986259324030123
-1336.7867722412855,220.3096878138814,-48.075744520300006
-1330.6888692876773,165.7803633248867,-83.12206512927453
-1310.9267690801653,95.24669484482469,-165.00537900302348
-1238.547312282992,-25.249091177925187,-163.51455389964974
-1163.9856627900456,-111.434587754228,-217.05169451341695
-1109.6551829625816,-192.85484849566367,-188.49046310411813
-1082.9488153446898,-231.75090372349376,-187.95919095715666
-1065.2975276980417,-267.0606170302805,-226.82159554995846
-1036.8474453559575,-232.14247474927728,-191.19169135229666
-986.0186710038597,-147.38264341033891,-186.79161589329692
-965.1726124619519,-39.0021057139798,-163.29735434628543
-926.0124507349606,68.99032799171992,-166.9999439156083
-873.9304451571129,235.16389388833088,-143.23239842351876
-827.1458653056856,331.4903662310779,-146.78203056089492
-794.409915720455,389.66007760040384,-103.31662698271073
-811.0608617621716,471.564703543004,-44.973053999072064
-875.3437718283002,510.99712949886055,-18.59666654769978
-958.1844972544143,554.6185496576304,27.110787067958988
-1028.241040518424,617.7675352949275,104.34042206054058
-1057.0480235350503,672.5783014587041,150.82010676428752
-1062.8502087868947,711.7354040370566,197.69646107488288
-1070.640840654046,738.8068300591946,189.6386635599313
-1070.8039952481224,734.904376112128,185.724992734522
-1047.8399861318596,711.5131059026274,186.14817496290786
-1010.725375128102,645.2080985861635,159.4550636557846
-961.3925244604427,594.4252114636497,148.59202683893074
-938.8700524643992,528.4444739029129,145.22696333610358
-878.0052311441727,473.7030484416187,134.54951487001168
-839.5507130365621,403.8718624606773,147.1348523705853
-805.3861410369495,330.09845360036303,147.89556066546683
-774.1746671901211,229.5462772710355,180.09921838752277
-793.0577720220464,129.38261281885252,211.55134526061397
-812.3508027715889,48.42469140838105,227.23356090000158
-851.0745259594256,-16.97756114473342,234.72337648432443
-896.2255204376623,-16.346866667006573,265.4423274002845
-957.4992479592931,-19.636879056558563,276.3094430819903
-1010.1941029811405,4.26566666496714,306.83668734991056
-1082.3471827790327,59.164138620222,325.1936186159392
-1151.3003931006003,98.42127535906758,327.9529706882575
-1208.2005577847685,168.60701666726152,338.6375571678402
-1256.555500604182,242.80768662081348,372.9846583695758
-1297.3135576369098,320.7833459948097,403.5078237726441
-1311.3856413760052,394.61283924683767,426.5962382668904
-1301.5045912722492,472.3386681486543,473.5776233474225
-1285.107554567564,514.9464903917241,493.3019940550546
-1244.2781173999276,569.2902265299568,548.674623852182
-1193.0475748599165,615.5333370722929,572.8337403700551
-1172.7654193837857,623.3606787231114,600.5842973900363
-1136.208593148527,639.0123028761096,652.0983210372553
-1086.4056533066848,653.9980523420332,641.0201240994633
-1039.8454110221128,661.447079277837,649.5418924913198
-1012.7036245812791,703.7602035353563,645.8811112867289
-997.3181463598683,738.3918055605126,638.1455440950784
-1031.422555102915,781.2841286270033,645.3386222614248
-1085.294162634539,773.9972365690629,648.4813876298226
-1170.8381557412572,782.1835183268497,623.6247852222726
-1251.4569195392924,748.1270362458129,638.2301805407556
-1290.7261909010724,721.2065282231955,622.0340279300272
-1321.2564943176317,667.4532077722771,641.3821233550703
-1305.756807880367,621.0122722846232,653.5442786272581
-1278.5303849938564,559.0757292245569,673.784625738657
-1211.1067489917557,496.26426965375543,631.8355401691709
-1143.8462675837316,468.16904855378755,577.9924846915104
-1113.4281329506,409.89940499558975,578.6451030678163
-1173.1325172204577,390.5584475840374,526.7955927865275
-1314.6385360954048,344.5886209867794,454.1877195576472
-1449.5062024238657,307.01105882232974,460.1438819576513
-1549.5403629170005,292.3791508823095,466.5446406265137
-1620.1251191793326,253.98785517990345,438.1445243788654
-1712.7765342905072,231.48985637297145,436.8321496127628
-1764.5577235855264,223.72879627599644,388.9870648998384
-1806.9473265590186,224.05612518036233,388.3507619829402
-1835.5503663330496,204.54385544502966,344.8180571346995
-1851.9779945241241,196.68592230782176,317.12562393885787
-1809.812729117487,204.02787904126285,309.88359939428864
-1764.2212172352438,168.74977693707845,298.91145294264606
-1684.7139441093545,160.04547934309883,260.88521564448615
-1565.8864138110366,147.3795842617,247.00993713449552
-1465.556535616138,146.640290007291,252.43992596860295
-1353.8670188086658,157.3493496759852,250.15168278668048
-1304.9920207206335,156.65492293494722,215.56494827489513
-1232.16388878975,179.16515833643498,200.88103480801294
-1179.444560578791,159.13079390005763,170.341553945537
-1107.1772725650453,196.94493022591814,135.97507813575484
-1069.4069840363427,204.17981675699656,112.96824093854681
-1055.0085911090944,215.39363595111482,81.74952710660624
-1020.8175064879445,222.72641523863913,66.53852232923578
-990.5604870164633,237.79170256917502,47.31778945919351
-963.2045601709045,253.1272146961501,55.524975399346374
-938.1664482774445,248.5711226565647,0.9707392432685985
-910.2649732579424,283.35262296502884,20.894393090402943
-910.4291475682319,279.44914930174934,16.98051832175106
-926.7425675434529,267.7570832037444,-6.772108722142629
-938.3030902499836,267.84681823048646,-6.945572647132304
-934.9675985173328,271.54838808359636,-22.606598583614183
-931.6586194062194,232.76348192298087,-30.275374363314693
-986.4795827321259,225.23695655499074,-54.61895754411548
-991.5873412429322,221.0897707168095,-90.0030081628283
-1011.1822079915161,213.43272167355826,-98.1199492181326
-1015.5537313965525,197.8851085742838,-109.90705286718708
-1009.5639183615201,166.50028297124913,-152.8819729469289
-1010.3541984265779,150.85375739931578,-172.46460310095702
-1003.4649956916992,131.28030469120446,-191.91772929593697
-949.2436254990237,111.62221553741595,-179.2661102415198
-896.058286978734,80.11900088205454,-194.06117277561657
-891.5766342226959,72.52282889671805,-174.34495979768832
-907.4821677127256,80.24248851544615,-190.30861711185779
-930.3584812346725,134.5484951537987,-194.75865866529347
-945.1453860390654,146.41085385937095,-179.3221946332336
-909.9468217994933,181.03021928997163,-171.06249330811238
-839.1948320782327,242.63331514839425,-142.73783606022445
-788.0642217270935,254.0918662336272,-114.53860390653283
-714.166407488796,253.69825577541772,-93.80675358047857
-658.0371482616389,292.447471868579,-38.1520702788414
-634.2889773775959,304.0120734399617,-22.136815324295252
-663.5629904197663,312.3635492242509,20.56737010090092
-721.1198523450925,328.31904880871656,23.575940815671
-803.8249555148803,391.28346581146474,69.22017202612514
-861.1095532113413,445.9259788000999,72.10239990210725
-952.8024350823167,481.5956519300679,86.30704674888979
-997.5445233591493,520.9475203050991,120.82617407575474
-1050.460656799213,571.8293199002718,139.48494134082486
-1115.640917132762,599.450372961205,142.3391270209501
-1140.5117955672938,627.2182651568069,196.8184854155089
-1148.8224827030638,638.7125063094942,177.03191201888515
-1146.5281212238635,674.0446533729664,235.81651226463677
-1112.3982195754922,654.330479827464,224.62002824613913
-1084.1112918274846,646.7264560272877,264.31554098494394
-1065.1751617524844,600.1529574319468,264.75605838895035
-1034.5326895524977,553.524394161105,269.2968546853411
-1008.785874891018,495.08037913048804,246.33284556907816
-978.2831038122092,409.79845309050495,254.92599409584315
-983.0900460401871,332.35202643104424,243.34201791641388
-1005.3096623209761,267.1034451112256,282.47464730565486
-1043.159488714291,190.3351297333952,317.48864291067804
-1108.4519178312678,125.24358471037513,336.3533928507697
-1176.2324545079107,79.83317442755683,390.43608163848006
-1263.0001070702024,34.64016764134542,452.0830252940607
-1305.0124150448933,31.20137865631995,463.23872066403925
-1345.219825322613,51.38533546114117,521.4380038035415
-1344.4856296492687,78.60319273146284,537.0559773215115
-1366.7868232270962,117.60591027517043,552.2884981109758
-1342.6603376280382,183.33273849887578,568.1267303309489
-1309.264631653011,237.80393916373075,631.236966752153
-1281.2020414718584,295.7972396282115,651.0847231215554
-1237.8844967445561,311.1500869308072,675.2295636124468
-1201.898711588565,342.1056120081781,707.0610249167657
-1177.8538032865456,376.9166840868187,726.9271361780018
-1165.6376030550698,411.74815048971874,738.7660414106755
-1165.311293866917,477.48313644312793,734.6249738697721
-1156.8680436234597,504.6412383433691,750.3581753198087
-1136.616479633718,547.2194888162625,770.1406698515805
-1129.2949172245367,589.5448496683374,750.4846201302179
-1114.5090321363566,635.6105295896152,723.078727190223
-1113.9685825434783,655.0575374873173,734.7952664773394
-1145.9876716309852,658.8559803806602,698.9807936451286
-1186.0829131252774,631.7305093992343,659.2251176497581
-1247.8471241453506,597.4221574135919,662.3403506804057
-1287.3305359118558,558.8615888198315,642.2560201495925
-1314.9342537971684,489.39852039177504,638.1526821085693
-1293.561001973151,434.7162384708336,599.4106040288989
-1269.7506284001163,396.0893883232297,627.3702028725406
-1238.6492839042896,415.2294616408254,631.695839047993
-1196.2392866065375,399.4615898395477,636.3090351955051
-1134.5260613971134,406.7229889921635,637.2094446115647
-1132.037953837447,387.04144636547653,601.991505763946
-1168.1664992632552,394.6709630709774,558.2538379568966
-1254.6078426373942,391.04587193384083,509.8754416645848
-1320.9301851294788,391.34668821666935,485.33291185063206
-1385.1213207364392,360.2912309504265,417.7583578490106
-1428.8467519489327,344.836412026533,381.83375566579826
-1457.3988059123146,333.06174891527695,338.2745381960201
-1516.022290996416,294.6847292398526,321.82753539689907
-1555.9135892481124,294.63986172648157,281.9841638072125
-1606.613879357375,267.8427393656346,269.5415865764558
-1641.916454650671,237.0585266120439,257.34170180438787
-1639.509924388043,225.07992025819217,218.1723626314797
-1612.3752759607003,209.46602560507412,226.48101033482388
-1569.659363799055,197.63425838589123,238.9348044439233
-1513.2180714107267,158.22732533535918,208.51565009457872
-1459.3260695548431,130.76432828743762,213.3399274981773
-1398.5407860992286,103.0362050241418,194.72092916541328
-1315.5664778492148,98.06784171964944,144.96081740451635
-1284.9240056492279,90.0581748099504,141.52233433435478
-1220.8144473393056,85.34157943844228,103.25238486129311
-1140.4302182702554,103.88970749440432,84.77074230241725
-1102.986238929706,122.62699290787376,49.94682179949321
-1060.4436785242667,164.82183008468743,46.51721026038454
-1045.7597650573846,195.4133164740253,19.16148735806825
-1021.8270255387927,234.0585215134628,35.08812897370662
-1037.1023744092022,272.83119107952257,30.803893276501153
-1029.3117425420505,322.9961301769718,22.902112342135187
-1030.3008672686392,338.19805948004677,-8.56088470578638
-1006.385462925668,353.66511499849594,11.368204228763137
-1003.0499711930172,357.36668485160584,-4.2928115105566125
-1006.058134021302,361.471042608842,19.196055737688205
-998.2970739243269,369.14848597635284,19.286402594158048
-1013.7926814967395,357.66138283715645,19.092962428556135
-1026.3647626865445,349.7738779297722,-8.541000239633311
-1068.5300280931817,323.1225749873811,2.691112663345791
-1108.2377774265424,311.54063824037775,-29.261572504372037
-1104.740150816028,280.52698933886705,-33.029117996461586
-1105.0154741935319,261.14932214364745,-36.89241484094976
-1067.918198365395,210.28485772409542,-67.56221543544433
-1008.1730254470182,170.71069121463498,-113.6290170445565
-935.9648809736251,123.54983608061879,-132.01144121590963
-884.3968123671183,100.3608775677729,-84.06550656952172
-842.553777283782,80.58725456705399,-95.14584491136118
-823.6961653571813,80.33589452055494,-106.63682297216685
-878.3804867105486,72.8440395038061,-127.05358098841094
-897.675556892517,88.43346096781266,-131.32007362351058
-888.4144942462514,96.48768947601883,-88.03719924744944
-864.9396073072866,127.29321429846077,-83.86492839042896
-797.6587315750028,165.8507237435822,-39.81634911004268
-739.2575446253309,192.58768284786348,-27.257932117491706
-660.98922669821,207.74168548892843,5.260338647754331
-616.9925509730642,242.5741716080415,45.04800314072594
-592.6723192935407,258.1442184640015,76.75679258462371
-598.988441516726,262.41478996395307,115.89380675358049
-636.7057048023536,301.5362024748513,130.89587167891176
-715.9111419292012,333.4879902923017,172.77255739727636
-775.9041058873316,396.1709656202679,206.98403634268584
-848.5201368459159,404.6111567150862,221.56597818827026
-874.294483845146,401.2583298068148,256.5126725232368
-933.4053932790505,409.0999474846151,216.35420862374005
-995.1696042991238,394.10094170792274,215.48031182921795
-1021.6026879719375,413.75597171307226,226.79202377978214
-1063.9616994590406,437.26145013842654,222.15333472694553
-1067.7856352577078,441.15982522064115,222.08297430825004
-1094.4614113892105,425.99562541744643,233.50787475845476
-1122.7789306236075,415.27738830283533,307.6881503877471
-1129.7231980339873,407.8049078941331,331.1569190294341
-1135.9536640952824,404.37152340503644,374.2460473250295
-1153.6457403904494,397.1937409818848,421.10098759515233
-1181.3310355728001,436.8372481938277,502.96890375408526
-1226.565646780501,445.1713888024963,529.735434628543
-1240.7295049787647,449.4664334915593,564.8310075306043
-1265.478017467739,391.30589956815027,529.3346861568426
-1289.0436591496587,368.2042287631353,521.2106070880475
-1317.075657844422,294.76936568552975,505.33974394925895
-1332.6773159029844,248.49872280544326,509.18713322082476
-1332.2694294177932,229.291348217791,524.9560247383154
-1315.5766750113446,237.21760234126845,560.5012924903
-1288.0035486124214,225.57448262148648,580.5764455751964
-1249.2237410328707,221.4762431615282,589.0207155348668
-1230.032681904626,171.1022622404185,597.3273238057849
-1179.5057435515698,155.37823823629887,613.8355095776845
-1145.8551085232982,123.95466341717103,590.8980130829591
-1073.598017671682,103.84076111618137,568.4999464648988
-1050.3892766643046,115.26872071502503,568.8089204774311
-1058.1493170450665,165.5182962581514,556.7497565427542
-1080.4811021092833,239.271310794206,564.015234560222
-1098.3057415121373,289.98689664666324,594.9748385024449
-1101.6708050149643,378.96325452626536,590.6991684214283
-1107.2588498620835,468.38012980987395,633.4844212855563
-1090.698658563322,572.8194643430734,645.1540536268758
-1101.0283838007883,650.453518785722,664.360408498315
-1135.739523690557,743.3996318824472,643.9038815497648
-1188.8973298730964,778.7715478782255,658.6867074893058
-1265.5392004405176,821.9575492140539,661.3185950350019
-1355.4679732630411,791.4180683515779,628.6774790575784
-1401.8446666292773,733.8122600480287,636.0255540882973
-1440.7366429922554,683.8165938419338,635.6125690220413
-1420.4850790025137,629.8481132700771,675.3437718283003
-1349.5332249035096,520.5824619008531,633.6047477986878
-1220.7226728801375,418.60778145442123,592.706989644782
-1092.2384300449187,328.13651960659354,539.9917402986749
-1009.6709885638829,284.4467784615542,486.4311462120093
-1006.2528998179807,241.82671962392868,482.702044021149
-1112.918274844111,218.80254725110004,410.538767061127
-1210.1176242651673,172.98465836957575,393.53907807457193
-1249.8865565713063,153.66511499849594,361.61176344623294
-1269.261164617887,138.33878031743768,361.3731498523961
-1300.2503403302862,173.2926126658951,349.01724849974255
-1335.369366705246,208.20769579825938,328.7503887668062
-1405.3320960776616,239.4885103475703,304.0487832236289
-1441.215909612355,262.6258712200395,264.1870567421087
-1478.3335797647517,290.3132058348162,298.85944741578425
-1491.202398372533,297.7979228380742,259.3954102573254
-1474.9175304512755,305.62118562404083,283.15989660077605
-1429.713510729964,312.72758791228404,252.41647249570445
-1364.8289680981784,300.47875676199317,237.73153931260933
-1295.3047166973433,265.2271672793462,250.6656197580214
-1218.9993524802048,252.854950467285,232.22711119495446
-1169.3085814217904,233.05614047610553,225.18902989298078
-1120.219442929033,224.69242809726055,198.47960312644994
-1082.2554083198647,201.07987946954364,187.35449924286075
-1051.5925417956184,216.24815813759034,179.9136300367608
-1024.7842025564287,212.13768208307633,176.40376683169075
-1006.6363131140604,227.15504275160225,141.3041150647775
-1002.6736959104283,223.2913380206289,145.300382903438
-980.7528564800418,226.6737366990767,110.29556474433167
-969.928568879281,237.98544864964083,86.87227544574345
-920.5977576440478,225.82125394502714,68.02924546098822
-890.9148384004733,236.88109599098573,33.114876129973034
-875.4202505442736,248.3681991301821,33.30831629557495
-879.8733512463483,259.8338882289059,13.57976475146967
-922.7799503398205,263.89235875655805,-2.7750964906466535
-949.508751714398,260.3009182544498,4.685891716335345
-985.3895061004524,244.81958670901892,-27.19634125822784
-1009.0010350119563,233.2896554888775,-39.28497499145988
-1025.3144549871772,221.59758939087254,-63.03763262683995
-1018.3436749552601,232.93887311161305,-86.5191477211892
-1014.2444157790887,229.10881901566796,-78.5956468314868
-987.8980079843781,217.15774499956663,-93.85906502220433
-939.0841928691246,208.72571163445215,-128.42102043001432
-874.2567543452658,188.73927386008475,-143.08148042399802
-808.5299261215604,180.5642089806407,-134.2201465332198
-747.2276465459663,149.10392437784566,-137.12021944292906
-743.8105775162774,125.79321174917023,-144.83947117517198
-735.0399983684541,141.44891476702037,-117.28877853293429
-781.7460600714822,191.89325610682548,-141.7058832526908
-820.800171312324,234.54186699841435,-165.98226713505633
-834.9059056864476,285.194230445667,-138.89248622108468
-815.4772526805791,366.18621037765195,-150.64879444050723
-776.534290506952,423.91948320782336,-150.26028256336264
-772.4911157224946,470.2798611146518,-154.28000387492162
-740.6545558371107,478.01848745494135,-126.35711481494701
-758.5852457261145,474.6401676413455,-87.36826541173593
-806.144809899405,487.2489586148175,-17.47997532286765
-905.2173780037017,550.0940688206473,0.44708131726940403
-1010.1981818459924,617.3107024315134,69.2909403313058
-1069.1316606588389,695.7085243176824,130.93768004364387
-1140.9910621873933,778.7093451892339,263.018461962036
-1142.0107784003712,852.8263984133216,329.4713281293816
-1123.9006184578832,868.8328838084361,404.2562954729699
-1051.0928808512592,868.1649696889357,393.5757878582391
-963.4951792916033,836.3253506549128,371.447946036618
-877.0997231470483,750.1185420097588,325.93699173520014
-787.5319298639189,605.7828106437979,272.82099391739285
-733.0546109017862,480.92161951328956,203.4150295972631
-688.3910407733529,333.41559044118026,188.88305384611465
-649.5541290858755,221.1988803515982,221.24068871633028
-637.3379288543998,159.483615709748,253.02830222349124
-651.1693595672325,113.6575690985199,307.9206456843061
-706.169792946623,73.32167457796496,507.38835382113166
-720.6069350899646,-225.67339509414532,374.74366883696274
-829.2077314883269,-460.5925570913615,401.3817154685851
-919.4852472556889,-452.3512106580739,1239.8729433598633
-1078.1255576573042,332.7966226999026,1501.7156725283355
-854.9769799064921,1157.5512534861548,1769.1566437060567
-636.3742970331358,2045.8260466112283,1781.209689343456
-689.7533816338914,2128.3618768896617,1446.5388282441
-778.148501272096,1634.656075214268,1109.359465260818
-724.9815176436398,1059.4851452840676,872.6945491069837
-620.8593148526766,709.1422657074537,726.3000107070203
-513.9869374353118,537.1324560374849,622.5163536987657
-420.7032982720909,450.6605211769565,553.5621236609852
-441.82468019150275,458.0677397480282,498.27616974196087
-484.97703089230276,485.2370585266121,470.0657207099265
-528.3741134842174,477.5871474968517,441.96947989374564
-558.6270540908465,404.5928018232526,473.1595397001015
-594.4241917474368,304.17114916918626,461.18807135974066
-664.1717609989141,443.6397750506035,420.42695517837393
-673.2319395512229,361.2630205013945,287.13169125032505
-703.2279116721817,105.82716829906238,252.2227264152387
-719.5474499446805,2.4443719312915215,358.2915674567768
-804.2817883782944,208.7868946072308,426.96945440084033
-838.0150204198173,518.2442526244946,390.0985555719843
-896.2295993025142,673.0636863760816,345.5338979162099
-944.7058883512719,626.5177201184912,290.0195275654786
-997.4711037918149,518.1004726384648,234.64995691699005
-1049.7468554501284,460.0123385661771,183.04313909439006
-1101.7217908256134,463.7893674190473,127.30749032544243
-1175.6716105907728,475.7557371783433,102.61098336332999
-1296.9464598002378,515.8397617942927,151.67972753182792
-1382.0009891247266,598.5193720587561,236.4681109247297
-1436.2091030066335,665.520845548684,325.69633870893733
-1421.6679498095682,739.5532623270944,396.30760759280696
-1362.0961286473976,758.8605691036186,444.2301907379177
-1274.155802440181,738.69568099198,429.9174539725595
-1169.2779899354011,675.3131803419109,357.1341895550469
-1145.8449113611684,577.6682149357835,275.39781678758806
-1180.331713684082,484.3050379079503,188.85450179215127
-1175.426878699658,433.3365624346745,118.45635359679402
-1214.9204876282934,356.15628170680105,106.35130243253305
-1206.0897452239044,340.9298792146146,141.85680125221154
-1189.6927085192192,306.3003166218842,177.54075040916115
-1186.2766592057433,263.6802577842587,173.81164821830086
-1148.0169068948114,224.6954872458995,174.5162721214686
-1060.1479608225031,173.61484298919612,164.23039468116025
-971.4612023473869,103.43083519856425,181.49419016687656
-894.6102899563052,91.19515838742079,178.76237043230873
-852.767254872969,52.11218917775184,171.67126388726018
-818.7403445621085,36.23265845115305,156.53663585424178
-798.8721938684465,24.648682271723782,176.4955412908588
-774.9068234310392,47.853548357492116,196.39938205197495
-767.6913115080074,55.3946556673278,180.78344796643097
-720.168457118384,101.70170241621759,208.81136779634232
-720.5794027522142,159.52746350690606,185.06319691229933
-705.0297502205136,217.37086568807902,177.25115100467542
-689.8900236064304,255.8019303227912,161.6505126623261
-696.9699132731362,286.9144916969608,173.21307480128283
-689.6738437692791,344.68039544594745,149.58013184930635
-685.2207430672045,371.8344184813367,161.32828233902507
-693.091932515181,425.91914670147304,145.32995467361437
-696.8924148409499,472.305017513626,137.26705857759788
-704.1640111556954,514.9546481214278,140.93905666053138
-716.3516593332076,541.9200236574162,117.11746620915402
-761.3660118389054,561.8942248372279,147.77319471990947
-827.2039891298252,612.522115095369,126.99341773184524
-901.1007836519098,612.9167452697915,106.26156740579098
-971.4438671717662,551.4156210326666,89.71687579346668
-1014.375959170563,493.6782693376434,85.34392478573214
-1066.4600041808364,462.6707387334106,33.64828968098179
-1132.649783565234,424.3865132333672,21.012170313001892
-1171.7559003329375,401.3694788740294,8.730147399978586
-1223.0476258457272,347.3887617076168,-15.403833113244586
-1186.011532990369,308.09603687293827,-50.03808640055473
-1118.0168559090007,268.5993687956642,-80.28327716396528
-1038.1322877843097,256.1292592271571,-106.51649645903547
-1014.8450286285328,240.54391662800245,-98.26627849469494
-1049.2777859921584,256.320965875197,-94.91069835264847
-1094.757129090974,287.76493501858437,-79.99949014189352
-1110.4199701223151,368.92108926085876,-104.05592123711972
-1120.9740329266367,492.8441414754274,-100.70717319370021
-1102.4559864989576,624.8086757455401,-38.08099605879684
-1049.66527815309,737.0937068213917,17.27572616540817
-911.2755120250035,848.9300627635331,97.46376183508131
-773.5964880973626,898.7972447267927,170.00096873040235
-695.8451662902215,879.0636965732439,194.780072705766
-664.7448415106077,859.5850774729395,207.08498824777064
-674.6330296278546,839.7872871979729,148.13519397551661
-679.2227723024683,870.5276521544056,120.48966772547202
-671.9532154201487,905.115406382404,100.85900893781262
-641.5901454625179,935.6559069610928,81.58769814360664
-611.9072262189433,946.7167687232644,46.67343078421276
-608.1628282848884,931.211983704935,46.781826617652314
-621.7128173229391,880.5973497575625,-0.3458653056854278
-645.8964070299237,826.4422611187308,-20.148470680609588
-677.2129116466888,757.0434348120918,-20.383515267701
-668.4515099447825,777.555026436143,117.03996777696769
-672.8158953363279,930.0637832491219,293.06847904228255
-671.3597405841955,936.2830324320744,556.0186200180491
-662.6850147603923,814.878679263561,831.2818342655239
-771.7864918193268,631.0340432257703,944.0818220289294
-835.6380619273657,409.8351628741722,814.3586239949424
-770.7463812820893,334.80138477461725,701.7697174876233
-637.8579841230187,336.12803556770155,534.997170287509
-529.0542641982737,380.86910412832117,442.2855919197688
-428.3114009371193,433.3039315158591,337.6525113061036
-369.7919269067419,432.0415228441925,248.2672472250973
-328.1864857010294,411.21177976169236,119.44853747202154
-345.29120545752124,422.4929002258672,68.13407228768234
-373.1937001932363,484.25813096215325,28.26153681430458
-389.8895137483239,514.951588972789,-15.262908332611037
-416.5357181096501,484.34684627268234,0.13964299735383645
-453.62483620808337,457.97392585643416,46.7684683352623
-489.50559059413774,442.49259431100324,14.886327135158288
-491.1126633457909,349.4037209444612,-12.296044010951753
-529.8374062498407,303.3115284016459,-8.79601087017483
-566.926524348274,315.5573004032978,29.853313822763127
-586.6131655560258,417.00580728383295,107.70854471200666
-612.3895519876819,510.2007311365247,122.70653077248603
-623.1424594535342,611.8980487730266,236.01637664238046
-650.7818674063009,717.2082209521091,305.8903907042671
-688.1177568282748,771.87316769743,328.6943043750925
-716.4006057114306,779.4761717813933,288.99879163628765
-723.1806988115209,775.9061453197577,316.381231103384
-742.0393304543346,814.7767076422633,319.89313374087993
-803.6414065965442,880.9185603646506,306.9733293224496
-849.1217694115729,970.2905681348882,309.9152105968909
-909.7693911784352,1055.9773215114235,320.490687441685
-925.1038835891973,1164.25078900542,300.2727740869716
-936.6113810526531,1230.0122875803665,288.10552023371895
-955.1987681828149,1365.4917836366142,279.5205294366578
-938.4774617224027,1396.6033252945706,311.0623913364911
-887.6599042486476,1182.9931729999544,265.4494654137754
-782.0978621649596,1056.9970377244015,114.39482392050294
-769.3014434082995,1033.0439038815498,44.024513977759995
-781.5054070452194,916.1232429015006,-61.7285209526189
-739.708259191467,883.7554108691552,-182.65666664967142
-576.7983970061133,705.9984806228427,-446.4909015820898
-622.6478970902399,754.7888422651977,-223.63906124925438
-729.0501853334218,968.402053708453,-225.95279733650128
-681.1449373639317,991.6332284725163,-182.14272967833054
-643.3165250110894,832.8205860309077,-169.26677305705823
-681.965808915379,725.9522874783949,-39.97287554873479
-785.0917489662628,766.602254592547,87.85772919396533
-848.8678600745413,961.6341972029186,207.90789923164382
-783.3154033232553,1108.8903958028482,290.80980763053645
-678.8077478037864,1057.99635961312,316.09469084753715
-603.0183599904148,972.1178995885447,297.8968353107331
-560.9489479077973,959.1287544676318,180.83239434465392
-482.9416773311988,834.1910846211499,123.55289522925771
-439.16220115941735,838.075183676383,163.44113433231533
-387.10466877068114,865.2139109685776,215.14992377621311
-333.889758480215,702.4131584180124,228.26959257238715
-293.67826933764337,489.1354336088267,209.96874569807224
-265.22104898206834,364.7218978958157,167.6433848459974
-270.98244558539363,344.96387655315533,116.6045489540261
-279.2095159916995,406.6832200598574,88.80035486124213
-303.3941254148971,449.0758821819888,49.04885970234484
-320.907751372793,421.6342991745398,-6.065608541143001
-376.8187913303728,413.8344898614716,-61.82151907124248
-425.97829024182573,405.73590369800087,-144.94756109374765
-423.07107931862566,419.9201562205239,-286.2384198477564
-526.4427709768372,483.6789321531818,-170.2630357971377
-627.1050766571664,940.0386472444719,-279.2747778293301
-543.7177833408963,838.625830431391,-297.3074393396318
-505.44273528676973,582.3813432721674,-362.58763186205283
-681.6445983082909,507.7738065496373,-207.99049624489504
-648.3080358736164,-19.046259426001747,-248.8851952501619
-799.0669596651253,-439.9484023596234,-288.96921986611125
-1217.2250462696234,-11.303656192481634,115.40638240377704
-1421.3008519728962,510.67387945934655,-101.34123273492987
-1373.06827509904,768.5682674511684,-207.4531058006557
-1219.7029566671597,895.6228681557924,-142.79086130329932
-1080.8380027838252,817.3484319313935,-120.82413464332878
-1051.5619503092291,577.2837819234908,-115.65111429489174
-1050.7257830145873,379.53837447038495,-162.06655687722107
-1068.0507614730823,301.94102981140355,-201.31033533367668
-1124.5328425099297,309.4451214227081,-276.7499604859968
-1198.7885771389824,336.78371309264634,-313.2761952348662
-1310.335333676638,340.5617616617296,-420.92457669030716
-1339.2442883145623,297.80404113535207,-468.3087496749655
-1373.7514849617353,258.5000994223308,-566.8082372675685
-1382.3069039886202,235.17613048288666,-586.4806024483387
-1339.5400060163258,250.3923358129433,-578.0424507859464
-1255.8926850657465,327.6888641890962,-514.2561425155379
-1152.9829248520139,448.3121147384683,-348.28713169125035
-1127.3676535820082,577.1991454778135,-191.35382623016017
-1201.4500364548546,718.5685223802217,-24.18165224617989
-1254.5670539888752,867.9375729734415,190.3728592332754
-1273.5541698745242,978.2831038122092,397.7209342639944
-1193.5778272906653,1068.2343103914181,575.2239551732754
-1051.1744581482974,1106.7082031070754,675.3427521120873
-1005.7766923465201,1044.352556683475,664.4593209709739
-1001.8854552777963,946.7850897095338,574.5805142428862
-985.4792411271943,830.0612339585894,516.3506396169946
-948.3258809073435,782.078487556913,375.7827596579872
-881.9811046585735,752.7555281365197,184.56863454900503
-779.8932357125012,738.880249626529,21.310539276919236
-648.1856699280592,752.4924413535714,-70.95338367332371
-550.2592628471498,758.8748451306003,-136.22694804036038
-498.2731105933219,730.932581462579,-186.37353224597598
-491.3298628991552,719.0957156623313,-205.85317106249335
-510.37714204136995,634.3379237558188,-182.30486455619405
-510.0182019344017,433.6088266635396,-130.60219340957414
-526.1378758291568,255.902882227876,-114.54574192002367
-521.000545548174,167.37214033334524,-59.225117649758076
-530.8693590573745,136.98969576766788,-4.325778935722189
-540.9298792146146,118.14635986804873,42.68256744148104
-558.7789918065803,87.75565560104624,89.61317065460683
-583.8415768891518,-8.104255785614864,164.12842305986246
-590.7032472862803,-23.280223113907404,191.54961174305194
-604.3164587295356,-38.15727083152759,246.34100329878197
-654.521166759291,-14.626503444091512,237.66015917770088
-733.9723554934662,21.124746982914658,271.6707540291537
-775.6522359827261,83.42012817832799,278.6853818582289
-805.6624841306666,122.48219320563089,293.80267471562667
-819.087048074521,173.30484926045085,340.5260715942754
-863.4477624876998,247.50959807885468,378.8572040401157
-895.8135550876192,344.9067724452285,425.13906379854495
-943.5107809496618,454.02762411220965,471.151718476748
-996.397342619549,508.77720730320755,489.79824914726237
-1022.9895020215874,563.1474560629778,489.215991189652
-1041.956223582977,605.8531710624934,488.7887300964142
-1034.1961832022148,652.1493068479043,480.89918575660397
-1061.1472827112216,675.5354784763401,476.4919722841134
-1100.9672008280097,687.0980406152969,436.6098514783336
-1152.1773490437613,702.6517720118492,400.4690694579699
-1245.2060591537377,683.9195851794447,387.3646964049905
-1304.7472888295188,649.1707157897957,343.4190064904937
-1358.945205549296,576.1498574946593,350.7028393997951
-1392.0451938225594,569.0913818684261,397.3263040895719
-1425.0024218260062,581.3759030861712,443.88654637414413
-1451.6781979575087,566.2117032829765,455.31246654056184
-1455.8080486200693,566.1729540668833,447.40150816027904
-1414.1832328063101,534.7585566936722,432.43207415376304
-1414.3667817246462,526.9872994345674,428.5316596391225
-1458.7448313134457,515.2299714989318,372.9612048966773
-1510.6177950676329,476.5531552568921,329.1439992250157
-1554.4451979014243,426.3127571596825,297.2605323938348
-1556.4948274895098,387.1811474866545,246.34202301499494
-1541.3214502403982,352.24363059760475,246.68668709498147
-1542.5247153717123,336.4951334043736,215.32429524863235
-1534.2446197223314,340.4414351485982,231.13397541464212
-1522.956361244666,320.97403292663654,227.44362243987499
-1499.7782117236775,328.533189213442,227.76585276317604
-1433.455869231593,347.5417191395635,248.31823303574618
-1387.7317942416628,312.29828738662036,241.27301372028168
-1307.6228885501166,253.53918004619317,230.89740125323127
-1228.1156154242276,206.21619003431346,200.85044332162363
-1125.114080751327,174.2582839195852,178.95407708034855
-1064.685697970255,134.85542973390508,152.51997369132172
-980.6141750750768,110.85131008040464,138.16134969637952
-919.804418430351,106.30133633809712,115.53996522767714
-869.9005266834242,117.45193312701076,108.39991230440569
-830.7933901995075,140.46998720256155,120.68239408972484
-823.3861716284359,136.47269964768807,112.95804377641703
-815.9524404358269,155.65458133001587,101.23038958257918
-808.6278188780063,159.36124976419063,89.55372119939021
-807.8375388129484,194.31610182886104,105.14599786879313
-811.9643303268701,213.58669882171796,93.24539980523421
-834.6214048630267,221.60574712057638,104.6524552217118
-853.4800365058405,241.16696323413197,112.15348768437745
-892.7513473000464,252.8651476294148,87.97815767871802
-962.494837686672,257.16631061575566,75.14513111001209
-1001.2206003069347,269.0021566997905,66.6758781031239
-1060.30091825445,261.4032314806789,30.494919263968843
-1076.4838145544095,269.05416222665235,6.679029026222003
-1100.579708667078,265.1251956580484,-21.141062442322305
-1147.9455267599028,242.0296431503113,-49.2449511301005
-1182.7892297573587,238.39537456725796,-53.679187082235025
-1214.2984607383767,219.15230991215148,-69.78478889325102
-1239.1591420107784,184.1362748747024,-113.20991368102257
-1199.3086324076012,132.96793502368294,-175.2341523354051
-1141.4295401589739,105.50901684061328,-166.42482397148873
-1095.6238878720055,81.8715871372997,-173.50879250304644
-1096.0011828708073,66.32825684611973,-181.31166096475351
-1104.9338968964937,66.07995594825961,-216.7661739737831
-1124.5328425099297,58.42290690500835,-224.88311502908743
-1093.8699759856834,92.90073572524767,-236.31311406035704
-1077.1976159034944,96.95828850830816,-200.75560971381665
-1068.9175202541135,120.213324631755,-188.9360790891895
-1034.1044087430469,177.9078482458332,-196.45852559232767
-931.8962132838433,231.7070559263357,-148.01384774617225
-890.2265299567132,290.12455833541526,-69.09454298868626
-884.0837594897341,364.0448063303983,-18.231812086696277
-912.1585862654425,446.0738376509818,43.86482641880765
-1010.031968103277,505.35707912487965,97.14346897258494
-1092.7686824756672,564.4526928155894,142.8000387492161
-1119.026374959849,607.3195229767557,154.03629170001992
-1127.4186393926573,607.208373909541,134.28744780327636
-1085.1412052025923,610.7151779659721,130.98458698944086
-1070.130982547557,610.493899547756,119.43630087746583
-1054.661887596682,598.802853165964,123.63243309386999
-996.9469696583442,606.0601734537279,120.54779154961174
-957.3207976220218,606.0357002646164,152.53832858315533
-925.5933473714266,617.6094792819159,176.52205391239622
-858.8580198130861,617.4116543365982,212.84434541867
-812.2070227855588,617.1567252833537,225.31751413581603
-773.5077727868335,562.8344031855935,241.7787929619187
-704.6626523838416,508.1021551702162,239.07042670024933
-674.5422748848996,445.89640702992364,231.88142739875494
-680.531068203719,400.0438477971581,290.8159259278143
-709.3666032743088,373.7484258130963,353.26640595922163
-718.4726690562018,374.45304971626405,423.7716243569415
-756.2164449633667,371.0869664972239,446.7652052433808
-771.5754105632403,359.63453370926874,450.49838629909306
-793.2780307240496,348.58284939301393,493.3815319196668
-820.2260710844174,391.27836723039985,484.9841689057936
-833.7862572845978,422.75802644124144,531.7707881896469
-884.0460299898539,477.17008356574365,515.1351378911249
-909.8489290430475,547.1868578974472,534.1355100875427
-925.8095272085781,624.4058878414138,502.23980666180614
-913.0783702895486,694.1249050389277,521.8183579509823
-924.5583354152541,744.4397424196848,513.6269776121305
-910.7085498105878,837.610193083265,560.6155007061536
-906.5572851075547,938.0644766561468,548.5655142173933
-924.5440593882723,1004.1869547704874,571.6202780766114
-927.4176196764442,1085.5592888499132,583.0767897294184
-937.5066918876478,1120.7802868461708,618.1285148343217
-961.0356237859005,1101.548439069407,609.9911794547578
-986.7824384473803,1082.755069264224,648.9157867365514
-995.0350017590107,1082.6734919671856,633.0938699759857
-1048.7067449128908,1044.5361056018112,648.1163292255766
-1107.0854981058772,1002.361662749257,639.5354172933673
-1193.35348972381,944.7120066485498,607.0401207343997
-1260.3386477543302,871.472929083836,578.8123365267447
-1323.2959267435874,782.7973874870625,558.5444570775954
-1402.5788623026212,663.1194138671209,518.5144774209338
-1442.1438513661649,555.0243967103955,510.4373052979356
-1436.2906803036717,465.67686212926947,475.5048869899507
-1436.8923128693286,380.56522869685375,475.78326951609375
-1406.6883186409225,329.964870776463,468.5575604309321
-1352.7351338122603,290.92911442745486,477.3464944705889
-1318.1157683816596,282.92434215557813,477.89204264453207
-1292.8777921104559,266.8301611661475,431.22880902244907
-1313.8941432599308,251.0939005674721,383.8711486593281
-1307.6636771986357,235.21793884761877,344.77216990511545
-1301.2904508675238,257.99432018069376,301.61981920431543
-1305.8791738259245,250.11497300301326,281.9545920370361
-1302.7894337006012,276.927391107055,254.43856974603972
-1303.3400804556093,315.40944155241596,230.7526015509884
-1341.5692412801518,377.5723616117635,226.0455915118823
-1376.3925499533482,416.42456904243556,213.61932974053323
-1415.3661036133647,432.05987773602607,197.28449572483981
-1424.2682261526618,454.99023621726076,157.82759657987185
-1409.3497779567947,423.85320165397974,150.30616979294663
-1337.357813320553,403.6699586505076,120.05628833495639
-1234.0197722973696,360.2086339371753,109.97639356966958
-1130.1106901949188,320.7517347922074,115.59095103832604
-1046.1268628940568,285.14222491880514,101.2703624581279
-977.7181810302193,245.7485481790418,82.8048314154171
-946.3996369810283,237.90896993366746,98.99884262209828
-889.4158555673956,237.25737127357462,76.30689379145784
-870.8570204911975,213.7600505779242,60.965671253690104
-871.3199716518893,205.91945261633688,49.21140246669353
-851.9443438890958,221.24578729739517,49.44991408890906
-872.1388037709106,225.02383586647838,21.66234137039662
-899.3856209816809,244.47288319660643,9.414693090912799
-931.2232005832777,275.352949274217,-26.48794440507207
-962.6518739834706,306.3360066893384,-50.61096296900573
-985.2814161818767,318.2228385840221,-39.216144147083874
-974.5672579321176,333.36970321159623,-66.5791070345123
-970.6862180255237,337.2079150372452,-66.53393360627739
-967.0784620640078,340.97882559283755,-74.34190064904938
-991.2895841087427,321.57464577608056,-102.11132241897083
-1006.8392366404431,302.3499360128077,-102.27957559411217
-1030.2090928094713,287.0195224668975,-106.50222043205378
-1067.041242422234,271.2995773276298,-165.87009835162877
-1114.7843555138606,271.2802027195832,-209.75664472577284
-1177.8538032865456,244.36683271045672,-245.93209709737786
-1226.3820978621652,248.01129845563983,-313.38938373450674
-1260.114310187475,229.2097709207528,-282.43487837334874
-1264.131992066608,206.0265228186996,-282.4165234815151
-1208.1903606226388,140.45775060800582,-210.7141582497591
-1076.239082663295,97.19771787511537,-173.2701789092096
-963.8928686146646,65.59018625116632,-147.93329016534702
-912.5154869399847,34.62986850759434,-103.88766806197837
-927.1922623933762,23.347932270449135,-80.52209470104471
-938.099147007388,58.35825689710554,-69.02968903754086
-959.7752545466598,89.7944761972743,-34.13887515104547
-965.5754003660783,186.880331203826,0.7682898849250255
-975.337143672916,249.21048472210185,39.657987182167204
-970.0937629057835,311.3203795383745,66.99933208588051
-947.7191497606218,366.01795720251056,145.6419878347856
-928.8707152799376,428.55001453095605,232.05579887117418
-929.7252374664132,487.26119520937334,306.4124854053117
-957.6369096480449,573.1926804770234,372.42279473622494
-976.169232102706,619.8681506936621,383.7620390245395
-996.036363080155,631.4521268730913,363.8021138717096
-997.6444555480211,576.9819459244493,328.6402594158046
-1003.6230517047107,487.65480566758276,285.68063507925746
-1002.82155476131,382.5883456634019,219.32872081699665
-981.7980655983441,277.6126404021761,180.75183676382863
-937.8462573865694,203.3049002462615,130.6409426256673
-884.7129243931414,67.517245950452,135.8190615551692
-839.4793329016536,-18.054381465638112,125.01210913002913
-807.6407335838437,-87.55313996114883,168.89355692310832
-786.790596177084,-133.6480857377392,224.3059556525419
-754.8714392784489,-152.92174187923501,260.17141429540163
-730.4410782479237,-199.1148863271352,307.788082576619
-725.7697582762718,-198.93847542229,331.40572978540075
-708.8567451678199,-179.3721607276695,370.8391754574703
-703.0953485644945,-101.68548892843123,409.9096021577196
-727.2901551498219,-15.818041838956221,472.05110817659454
-786.8466805687979,50.836830110180344,518.0301122197693
-811.3147710992032,155.9452004507146,568.3286341411186
-870.2176584256603,276.83051806682204,621.9830421193783
-944.1532021638378,374.75998429637036,691.1881223455514
-968.7579346667824,499.1429285229921,733.5716070217659
-998.3317442755683,580.7956845609867,752.4761258941637
-1004.4327063778152,673.9437014678816,779.5424533352369
-1008.0414820555441,708.7925030464022,779.3711410114566
-1031.5449210484724,712.7367653582008,767.2314194959544
-1056.1404761055,697.0983975159713,727.6694895810497
-1091.1677280212919,666.3825057486503,723.3244787975508
-1141.9495954275926,627.9789734516885,710.9196310666742
-1172.5002931684114,570.3578694049447,730.2789433700602
-1185.3385202898035,504.47298516822775,706.7612283501502
-1227.0449134006008,408.42387563541075,745.7072496724163
-1247.214900093304,319.5239964717819,737.8554348324863
-1255.8722907414867,242.10612186628464,726.2133348289171
-1226.106774484661,187.53498901255782,707.2201006459903
-1224.628185975843,140.56787995900743,648.5313537242586
-1214.512601143102,109.22078385585294,613.4673920247997
-1262.0313766678735,120.84248953516239,573.4700432869533
-1308.9281253027284,144.20622740691266,549.1406341615129
-1368.0104826826696,155.9166483967512,508.96993366746045
-1372.1097418588408,159.7467024926963,501.04673869262194
-1354.2851024559868,166.9591552670892,458.11770584246415
-1313.4862567747398,173.95848735296968,411.6104888009668
-1247.1027313098766,200.70564361938077,432.1373761682124
-1211.0353688568473,262.57692484181655,459.94095843126865
-1202.2352179388477,301.40975766444205,483.49028465378086
-1152.003997287555,358.9849744816018,476.19931373098876
-1095.4913247643183,447.04052862088486,421.80357206589406
-1094.9712694956995,539.8550983261359,417.5737892144616
-1138.5029546277271,648.0286336312605,361.61176344623294
-1200.8993896998466,679.2146145727645,333.0994784151571
-1262.7145865305686,714.4070605150587,320.2816456180246
-1287.554873478711,702.5681552823851,272.8536248362081
-1310.8655861073864,694.9753483605514,268.60548709294204
-1345.9336266716973,660.3906532811919,264.2727129039988
-1342.211662494328,641.0170649508242,264.39303941713024
-1345.8724436989187,610.2002212784183,276.2166489066093
-1319.798300133073,578.8704603508844,257.0898318997823
-1277.765597834123,547.5590543151842,253.90015958558737
-1216.8477512708214,481.2469089852295,247.18736775555365
-1149.1691862154764,414.63496708865927,213.10437305297938
-1076.9324896881199,371.34291526668136,194.70869257085755
-1054.661887596682,309.1616403155002,183.4785579173316
-1048.6659562643717,277.77579499625256,140.50363783758982
-1000.839226443281,265.236344725263,78.46818230486457
-989.0329521294225,242.03678116380215,90.4971626396374
-966.648141822131,233.95043159488716,71.23655886566769
-976.0458464409356,225.86204259354625,24.027675098020225
-975.936736806147,222.02688991653625,27.966838828753957
-968.8303345179038,233.40284398851801,8.411832786935397
-996.1036643502115,229.67374179765775,0.16663284607893625
-1011.3004950722215,241.4331091657192,3.823966390153621
-1051.796485038214,214.20566656299553,-47.7108900592965
-1080.0222298134431,152.3088924352353,-71.47262316897208
-1112.3472337648434,74.9328261944701,-99.16811551345262
-1109.5634085034137,39.87926560038342,-122.55561277296529
-1094.0127362555002,-18.133715387007797,-106.42880086471935
-1117.812912666405,-76.0545140287458,-114.438671717661
-1183.8089459703365,-87.25742225938522,-127.16371033941256
-1235.9776274262874,-14.014673716304754,-202.76037178853127
-1294.488943726961,59.62953709982513,-239.20604895657544
-1347.5039896396834,128.79831542881618,-338.3489774795675
-1404.0982394599584,101.51815349788156,-409.748486996069
-1405.2403216184937,74.1977127765343,-437.145202490147
-1353.7344557009787,62.58090173504714,-393.163822508196
-1223.0680201699868,88.51350869053144,-406.99321378860265
-1125.5627558850374,99.64931959435691,-374.17262775769507
-1067.7040579606696,87.63104627982034,-369.34121234060564
-1078.6660072501822,114.90366231077891,-357.82351771501993
-1097.163659353602,146.13960934671883,-342.50738019609145
-1113.7646393008827,235.78184191339554,-284.1887902596708
-1100.2737938031846,317.2775616545916,-245.01537222191067
-1059.3933708248994,398.6682506258509,-193.65736515527732
-988.6118093334626,444.83080358736174,-161.35683439298845
-913.377147139951,440.9099947484616,-101.34694314572256
-830.2458025931385,444.7012996283135,-37.3205936787792
-822.7937165086956,472.6068535126675,60.81240790687952
-883.6595575451353,527.3482789739617,71.48995834459271
-974.3439400814754,609.6128647397429,105.17556963896949
-1048.6659562643717,730.6174891527688,158.59850203688316
-1072.3641610539787,847.503479781577,228.4929104230293
-1068.1629302565098,878.4579851427349,232.37598976204927
-1045.8515395165525,781.526821085692,229.11187816430692
-978.4513569873506,618.299827158102,207.1247571800768
-894.2625667276798,411.82055034084016,122.7412011237273
-835.5207945628732,190.48502801670298,85.12121876481775
-779.6515629700255,11.90630847435159,66.93743531175275
-787.6542958094763,-165.75589013577525,94.88928431217593
-824.8769967318096,-327.328904365915,165.52033569057733
-897.6643400141742,-337.2456445371253,290.0511387680809
-974.9353754850026,-204.4000754589998,366.93774122661665
-1009.7393095501524,36.27130569562491,424.47420882768336
-1034.6754498223145,288.014765490764,431.10032477961386
-1032.1669479383888,470.1523965880296,465.84511530441085
-989.1828504127303,612.8657594591426,454.23360678723117
-954.8581829676802,697.4705939337083,426.9898487250998
-928.5933524700076,731.8411486083425,399.7950370411915
-885.3063992290946,762.6345388078498,419.96298430146896
-897.2758281370295,781.9306287060313,404.019721311559
-926.6854634355261,770.9391076463421,446.78763900006635
-980.4703950890469,755.9492793155666,453.8818046937538
-1012.9432578913289,818.5608745086244,504.2037800880015
-1038.1424849464395,857.8332050190434,546.8646275741462
-1060.8617621715878,916.0416656044624,546.3282568461198
-1090.647672752673,947.4356686534138,569.3238771649851
-1094.3186511193937,993.8551901005951,565.1879082051466
-1060.5354529834349,981.7766515578717,542.1861695890034
-1004.4204697832594,915.2534249718304,507.9298231302229
-970.6097393095503,810.4959389801819,504.8655759102242
-954.2942799019035,744.9506202423865,544.5763843922236
-974.2970331356784,659.9531950258245,540.6392600939159
-975.3850703349259,543.8238338270461,533.1657599690008
-1011.1006306944778,474.3179373180444,517.166412587377
-1034.1350002294364,408.8643930394172,532.7405383081889
-1081.4396353494824,374.19812066301955,508.6018161145754
-1137.6769844952153,358.5923837396053,445.0174116543367
-1215.899415192752,331.8666415136668,416.46433797474174
-1281.926039983073,316.795235885853,403.75153594754585
-1358.2517985244708,325.29864938587593,422.20330082138145
-1400.9473163618566,340.9982002008841,409.7362504015133
-1403.8127189203246,325.8268623841985,441.1414703288076
-1389.6386635599315,368.87520203127474,507.92778369779694
-1391.280406662826,392.6305109288086,566.691989619289
-1348.6460717982186,427.121392116574,567.2140843203338
-1290.8179653602404,449.852905936278,564.0794766816396
-1267.7519846226796,480.5565611090434,556.4713740166112
-1284.83223119006,534.3241575869437,497.1656987860279
-1354.4686513743227,534.7911876124875,488.2717339764344
-1422.3001738616144,515.4063824037771,424.5272340707582
-1486.6544640626516,499.7578173994178,349.0478399861319
-1549.4281941335728,476.7815716885991,320.7129855761142
-1602.137325182402,453.3413551008755,249.35936328919666
-1656.9062829814463,434.24309014801185,228.98033477283275
-1665.0946041716593,422.59385213095203,217.12307464832537
-1667.174825246134,379.5934391458857,166.21680186404126
-1609.8361825903853,351.99685927406404,159.31944139945855
-1483.2078232627862,312.25953817052715,153.5009406882065
-1368.2858060601736,272.5772817424911,143.5821610845702
-1275.450842030663,225.60915297272774,164.7545288146309
-1179.1692372012872,217.1281732293903,166.22597930995806
-1118.088236043909,193.33717426440225,155.4465592225684
-1061.188071359741,181.07916566819455,132.7925438350507
-1024.2845416120695,180.37148261638788,86.25249193149548
-966.8378090377448,168.25011599271923,79.30465551437035
-940.1916046764186,198.85485869282581,63.90204606058135
-901.6300163664453,221.73525107962456,60.477839017401465
-887.3621471144581,252.22374613145163,21.342558366006745
-898.9502021587393,287.06337026405555,13.20216383780394
-921.6093161273219,353.01045718976417,12.640300204453101
-940.1151259604452,442.17444285255414,15.986906843825365
-1012.1315637857986,497.1065552456752,38.27056130278944
-1080.1853844075195,586.793655325723,56.57171409196821
-1138.6763063839335,625.6876711211271,28.09205997970765
-1196.443229849133,649.3124563433997,23.222405204631553
-1262.6330092335304,649.6469232612565,2.6066597665869593
-1316.9430947367348,657.6986024789302,-10.007770237542893
-1397.8881677229228,673.7642314143975,-15.199176069299915
-1471.6544385697462,674.1925122238482,-32.00399728755488
-1509.4961072333572,708.4243854935172,-130.8020577873178
-1552.375173989079,832.2087563031209,-171.10838053769638
-1582.966660378417,963.8123110338394,-191.63322847251612
-1541.3622388889175,1025.0799202581923,-226.5381144427506
-1466.810786558101,1035.440236982048,-300.023963331005
-1330.8622210438837,1045.2499069508958,-380.43776417023145
-1214.1658976306896,1039.784228049334,-457.16427118332973
-1077.9216144147085,976.2956769131151,-513.7778956116513
-971.0553552946217,924.9978331030476,-531.62802791983
-839.5741665094604,912.5165066561976,-513.9175967328293
-697.5970387441176,961.4700228926291,-539.4288569491112
-528.15589421464,1041.2322250717627,-556.7823874615694
-342.8347091004574,1032.1669479383888,-542.2024850484111
-253.5758898298604,908.06238623791,-497.2758281370296
-129.30613410287918,694.945776590375,-424.05204631551044
-90.19502072573205,524.8693488602123,-371.87214798121687
-86.15765832368852,460.22953811954136,-242.08164867717318
-71.18893811852162,480.3046912044379,-147.73342578760332
-59.63861257412063,562.30924933591,-53.64665813504102
-58.559039019440895,702.6048650660522,59.71019665227168
-49.907256810429665,765.5692820688004,185.21513462803304
-13.208486078324405,781.2555765730399,240.657105127643
18.165836447716604,723.2255663248918,268.79515430855594
96.77290410078876,606.1631647912386,227.19583140012136
182.64137090647674,528.5444060917847,275.84037362402046
253.8399963290217,492.7156572325922,226.0068422957891
313.3598119643304,484.97703089230276,277.9450678876069
333.3075005226046,562.2368494847884,281.90768509123916
318.3003370162084,659.0048589477549,273.50726292872696
290.03380359246023,791.1906716360838,319.73303829544244
311.0970616877323,949.829962321486,339.13721811219943
194.0815670998761,1168.6253715590954,474.0079435892992
254.14081261185015,1088.6490289752364,667.4837992586664
283.08035873616376,961.4863383520368,750.7630026563609
296.7496545711329,945.4818923893481,703.9264172780715
390.62166998924204,1006.9065379104997,732.597778038372
335.3285780567269,900.7224689368949,492.72585439472203
263.7761111082786,829.200593474836,221.09588901408742
405.7624163195383,834.6785089709534,93.69203550651855
518.8010176767806,914.2428862047693,4.850626870541928
545.4553797678108,939.991740298675,-120.42440588784143
543.3017391260013,924.003609795394,-179.27222853879766
534.9400661795822,908.4508981150548,-195.0441792049273
561.3425583660068,884.9280845140797,-206.34263484472274
541.695686090561,792.2960440109518,-198.47552426159803
518.7683867579652,665.0803281446774,-166.99280590211745
537.355773888127,587.5227524180021,-170.3772440129912
549.788153956754,576.0662407651952,-142.67971223608473
530.1127296273447,576.1131477109922,-154.74907333289147
557.5216817159785,637.8039391637308,-154.54614980650885
575.6960837798841,733.9285076963082,-205.61863633350842
587.0638801221621,803.3049002462616,-225.30527754126032
601.9588748451307,845.5374669229554,-248.77200675052137
640.4388858580658,837.5021031646893,-248.16833475243843
655.9344934304784,868.2985525128358,-251.96473821335525
649.343047829789,988.3568802802181,-244.61972233127523
628.2930460452857,1050.8481489601445,-198.0503026007862
599.0465653408658,1082.377774265422,-159.34901316963493
584.5604768193012,1059.5565254189762,-128.09165209322248
587.9785655652032,1016.9354468651376,-131.82177400029573
571.775274940984,943.4801894632725,-139.66543111052195
577.60193338194,869.5731977790582,-178.57474264912076
631.9701427092841,748.5471593255598,-251.91987069998422
711.810863036817,742.7918810195124,-391.9911488632714
807.4724804087023,814.2586918060705,-536.0107682032092
884.7669693524293,859.0660419205336,-648.8178939801054
886.6024585357895,881.7017024162177,-711.6599450372962
858.9457154074022,881.7394319160978,-731.6983883385254
764.519994085646,825.0340330286083,-666.2030356951661
715.7061789703926,814.1567201847727,-627.6506248311096
657.2427893317291,784.5380430626158,-530.3115742888755
602.1944292903286,789.5366919386336,-452.6601846706062
592.8150795633576,848.102053198595,-401.9782494531772
573.2457057200982,921.5511923031822,-426.0670055523548
476.0647111908756,879.602106733696,-443.0789311334656
491.01069172449314,1084.050108854706,-498.4903101466862
