acc_x[mg],acc_y[mg],acc_z[mg]
-145.92648865820644,551.2463481413123,792.8160992795706
-160.57573177384737,524.5236650640127,820.1587698143609
-191.8657237690751,458.99364206941215,819.9119984908201
-188.01221620023148,458.96407029923574,819.9691025987469
-182.305884272407,528.9135433608827,859.0650222043206
-223.14143973732115,614.5921390077143,885.6367872820994
-236.26620711456005,688.661265569792,936.2106325809527
-233.20297961077435,672.9851682276824,916.6861262510645
-218.48847465750285,567.4231261439942,807.3735679360435
-162.8058511316301,111.61303809149913,507.5494689827822
-154.2351363615506,124.35337245644538,641.0711099101121
-268.5942702145993,727.1422962989401,884.5762824206025
-323.98321547113443,999.5227728123265,1008.415717905707
-303.1504132399954,848.1560981578828,973.9166789882377
-244.00075458999763,723.4713179322196,928.1273421606768
-198.15941223557485,679.5358251798525,815.1489040600002
-138.05835835886876,651.6374093089894,776.8973094787722
-121.7979636267227,616.9731763650177,808.6543314995438
-151.77965972069975,563.3564978866382,843.7080960368729
-182.52308382577132,478.6537706556266,863.1561236507881
-160.19333819398062,462.82981446263506,843.9212167253854
-152.81365196065937,454.96372359572337,836.2091030066333
-152.5403680155813,455.0320445819929,844.0619375627763
-153.2225581620635,454.8617519744256,824.4293413143123
-156.25723361188582,455.09628670341056,847.9307408748147
-179.62403063227504,478.3845655754004,835.7277969541078
-156.2317407065614,516.893128642299,835.9480556561111
-152.54240744800722,532.2704491340061,828.1023591134589
-122.5046269623164,477.7676372665488,816.9629792028879
-107.55354784763402,469.808752224256,805.4391662800243
-69.45582844294434,484.8485466494675,790.2606904498479
-53.552130442097976,535.0573335440747,794.2549188560824
-45.68094099412134,500.28195153288846,806.2630969801105
-37.564101910438325,461.7060871959335,826.1383856872633
-15.860869919901294,434.13907909428815,791.2345194332419
-30.75688435908287,449.8355707606574,802.732839450781
-36.58323688517486,504.4332162359216,845.6323005307624
-52.324596064915134,516.055941631444,833.5833337582151
-75.17266344776249,516.3027129549847,841.0894648019457
-101.737800370157,516.613726399943,852.4643991577144
-116.7156980212407,540.0131543391475,860.0102991337512
-120.54269296854687,563.2208756303122,855.9497891736731
-129.06752050904234,543.7657100029062,836.2651873983472
-98.70292097709209,535.688537879908,824.9728500558296
-64.92145635869538,523.6089796209716,801.9721311558994
-52.81558942146401,523.6558865667685,817.8511520243917
-37.37423075158184,508.0970565891513,822.0605405515646
-33.38397923857791,488.7917892450531,830.0337016208389
-33.793497269709846,507.9981441164925,814.2648101033484
-41.17328547465241,515.8642349834042,821.9769238221005
-25.214828713169126,554.5002625769249,829.9347891481802
-39.947280671789045,574.1002279065737,845.3467799911286
-31.613445977984334,585.7831165586618,861.130967251814
-0.45867753004338896,593.351450291384,869.4212600633244
-3.8766959155267093,635.9715091290094,873.1503622541848
3.0393049614292345,639.5751862256735,849.6938302070535
17.581437086058955,592.8946174279698,834.3705546746341
32.66864831517389,565.6600368117554,830.7638184293312
39.88405826658442,592.5112041318902,811.1587545186176
17.144794603661804,608.2331887035839,818.6138997516993
6.648060244833863,604.7274043633657,849.8661622470466
-19.589666195897685,593.533979493507,873.0585877950168
-46.34589793660425,605.3830818883105,876.5419383785494
-54.51586423498341,578.2933009743389,868.661571484656
-39.510230302906706,539.4523104220095,865.0925647392332
-40.87297904993041,500.4920130727619,833.8076713250703
-53.44138926136857,453.9847960312645,814.1526413199208
-61.28382271213922,415.3915965186889,818.0897656182285
-49.3696624229477,446.2859386232812,822.089092605528
-67.00147348992776,485.4644552421061,860.9392606037741
-51.34291526668129,520.164378253532,861.0565279682664
-62.603029576868764,504.880871653419,872.7129039988172
-47.353173611783845,520.168457118384,865.0405592123714
-28.57683306735736,527.6205432028268,849.5979768830334
-13.925958405775674,496.41416793706316,834.2247352561782
-10.09928976765766,473.20644664589855,838.2852452162564
-40.30081628282849,523.8068045662893,845.510954301418
-46.12757669540567,597.7137962505036,884.4202658400168
-23.661800920803742,620.5421831104404,861.1319869680269
-1.4947102221451771,581.5054070452194,841.9725390423847
2.7138319405709397,554.5318737795272,857.8250472893395
-17.12521605237263,512.0555949279317,849.8223144498886
-17.20638546292567,481.14085849907974,853.8501934911515
-13.516134459779845,457.89846685667385,853.9837763150516
-28.412148898961423,473.5949585230431,865.4810766163778
-13.680002855205398,473.30535911855736,846.0799559482597
12.868410721296264,367.7219029943967,744.793583945588
-14.386972105662995,372.7185124379886,846.4083045688386
-39.62912921333993,606.0713903320707,959.0573743327233
-52.14431023846064,625.230838257713,927.4084422305274
-36.22857958630114,496.79860094935583,857.436535412195
-25.104903305410108,512.0474371982277,841.8532322454662
-8.328328226254634,550.8894474667701,873.3706209561881
-14.181091402262751,562.999597212096,924.2626177134904
-11.090127617484056,512.5736107641244,912.7051541555986
2.0884603814758353,465.5514370350732,858.1166861262512
9.332351006714832,438.3423493241832,850.4677948127037
47.375913283333254,445.64555684153106,835.3137921716387
38.796123038958264,457.0714770079487,807.674384218872
31.33547133832655,414.71144580463266,823.4045265202695
39.151596110802366,410.8181693034829,827.4589181830697
12.94030071431121,442.1122401635625,842.6598277699317
6.323382602621692,481.0643797831064,865.9766586958851
4.880310809501716,372.56963387089377,846.6979039733243
-13.574768142026075,146.93906685769352,694.1228656065017
-68.36065323020604,272.71902229609503,865.5606144809901
-94.1610029928671,723.1949748385026,1028.4857724095386
-60.337526066495705,916.8033936155568,1075.4335068550424
-59.31628027919831,726.8302631377688,1032.9215379359925
-42.16332794583268,516.611686967517,904.3771318442078
-20.787628802904155,500.54809746447563,857.655774397985
-30.386217515665393,586.0910708549811,896.4692326125639
-45.309458377733485,597.918759209312,907.9797892246588
-46.75337653531023,528.0427057149996,880.7217551355459
-36.827968776289566,469.6150061437902,845.745489030403
-29.747671223098617,438.50244476962064,834.1829268914463
-27.038999046565344,411.1526362213396,806.843315505295
-43.053030341655926,422.7070406305926,786.9415141766048
-51.19577021714858,399.4850433124462,779.0489106881555
-61.39221854557878,380.6070370615858,822.1298812540472
-69.53495842107142,357.3860594596524,814.2372777655979
-68.90803689333259,369.12911136830627,829.9052173780038
-76.83367918708224,396.166886755416,817.9215124430872
-64.64674481091913,427.1305695624908,829.7736739865296
-45.37900302345858,407.672344786446,834.052403216185
-11.05250008922517,415.0387747089986,822.7682236033713
-3.6459239393676746,430.35185307928805,811.0537237486808
0.016404480633039824,441.85935054274404,803.2202638005843
-12.116573957467638,437.9436402849088,787.3534795266479
-23.43185491477722,453.5422391948321,791.0560690959707
-38.27311059332189,457.6659715601149,806.518026033355
-30.430575170929934,496.2601907889035,802.5809017350473
-30.813274665660554,538.6446951813311,782.8086043654052
-50.680813529594715,550.2286713607604,762.8496989287881
-44.855582691337005,553.5590645123463,707.9808089408718
-32.00481306052526,537.3496555908491,637.5847001779406
-1.9408666568094102,544.6436856622802,614.462635048666
1.040100340075357,536.6715443092188,590.9867283934882
14.571846655075895,559.252140129402,532.2439365124686
65.682878454926,619.914037923246,438.61359383683526
122.66574212396691,677.1904778900033,403.9524200415025
128.65351572657332,703.7326711976058,349.00807105382574
143.5485104495419,745.9652378742996,325.5413418445647
123.13481158193677,796.030244782877,281.8954484966834
152.2711629353551,826.2638107814597,227.28556642686343
164.02033314128678,911.1837375658356,215.40077396460566
173.8340819749864,972.4462482091236,152.54750602907214
164.4639096939322,968.2266625198209,105.32546792227726
174.06045897426748,979.2304201740656,46.56289354672595
237.9599557443164,1001.4928645357998,-3.575074056889968
186.25728459769647,966.7195219570395,-43.47845594571031
170.40681578316756,982.1763803133589,-59.46648447736995
155.047850183294,970.7229278091908,-55.73330342165775
137.34251757735825,974.1297996767499,-122.72896452917155
157.29938358154928,1027.221324305446,-224.64858030010254
177.36433950431598,1095.7972396282116,-326.62020159789535
171.71103281956633,1110.8176594453764,-381.7001728418981
166.5482096332591,1118.2411934758559,-421.04796235207743
176.36399789938463,1063.6455874330175,-459.9633921879541
162.5142122947184,1009.0989277684022,-514.9311946485294
153.41630424252932,1004.9476630653689,-554.3003981991812
141.0389888494032,985.5220692081394,-574.0431237986469
126.96078681302996,982.1141776243672,-534.9961505712961
132.72218341635525,1040.4878322362888,-491.93557432966406
130.14943941101194,1087.180637628548,-464.65918534871753
108.90875069468169,1141.8986096169438,-421.9911998490821
84.69681287697635,1180.4234881432499,-461.7305603850449
88.93220416758017,1176.630143830972,-449.88043827402834
82.02576822870196,1110.2466183661088,-524.327879551121
90.53448425303239,985.8065700315603,-586.5744163399327
90.3729612048967,885.3563653235306,-570.5393788908548
80.69473265590187,862.7461977331709,-511.7384631856955
67.62441812443598,944.5529309193253,-461.1901107921666
53.4629052734624,1045.3926672207126,-446.0442658808054
65.18484905650757,1145.7531369020003,-461.9059515736771
99.64687227544576,1191.7729295936942,-477.2435031330781
104.70038188372176,1168.8803006123396,-437.8437080960369
90.65113978779706,1130.7225199227057,-390.8307118129025
96.94023953133845,1122.5749873810119,-429.9551834724397
91.31293561001974,1180.097178955097,-493.02667067755044
99.75516613726401,1226.565646780501,-481.2836187688967
84.31380746738184,1242.1163190284144,-485.4919875798566
94.93884252012666,1231.2053555495506,-398.95479088169765
74.90101104862518,1166.5043618361012,-296.99642589467356
60.007036041869554,1085.6612604712109,-265.5493976026472
32.01745754156619,986.1971213411309,-163.59307204804907
26.938455027965723,908.6813539791877,-183.03090249983433
11.962902724171865,816.2247046646918,-151.5461447079278
-5.9940550544783395,751.0495429122077,-100.57532388736216
-31.65831349135536,705.243890625239,-53.70977856862436
-39.255709136147416,682.1595549958448,-45.89640702992358
-79.48932612054067,679.1656681945415,16.304956330653184
-89.05844503474684,652.7203479271719,79.04472985168228
-106.41656427016363,634.0391469054164,137.71675342752116
-152.08353515216717,561.1641080287357,168.67533765353105
-197.64241611559504,523.0736286091582,195.5938062437224
-235.713520927126,531.2109639887219,206.76989593796048
-275.55689251681264,500.28501068152735,174.88133052571473
-314.06341615128514,465.83185899364213,182.2691744887398
-358.8524113739147,531.209944272509,98.96111312221811
-429.60746024381416,643.3909642946369,34.728882951874496
-512.5226249534755,728.4781245379412,-41.3679492997099
-486.8043623459592,801.3307296579363,-92.248525235427
-452.0432563617545,870.596992856888,-103.73573034624467
-417.6910565789541,939.761284434542,-127.00157546154907
-396.7787164832028,935.1664431788635,-189.467351236151
-358.8157015902475,892.2445483421966,-196.60332529457054
-360.5594163144398,799.1220243406261,-227.71180780388818
-364.03155001962955,795.385784136275,-215.9769136249382
-411.93781770533263,888.0106866259122,-283.7258390989788
-422.5724380904795,961.7086364864658,-272.3600821891268
-382.58528651476297,987.8123518224879,-346.41697215664885
-407.7783952725957,1002.9184278015429,-409.6393773612804
-423.2740028450083,1010.7406708712966,-413.8222532669159
-449.31347605961264,1021.7760397281438,-500.59092554542076
-474.2057685346168,982.8881422300175,-544.0033038805301
-553.6294249310417,1022.5102354014879,-510.004945623633
-587.1026293382553,1052.9793558452684,-593.0271805356571
-544.2500752040708,983.2521809180506,-564.6770303824446
-538.6681486542296,913.1456715596051,-611.4524327879551
-538.5845319247654,808.8949845258065,-587.5523241881785
-540.8819525526047,739.8010533668481,-528.484242835219
-570.4006974858897,732.6436652679561,-489.6554888774454
-591.8585857555843,756.4101910438326,-446.8865514727252
-581.3055426674757,690.416197172327,-462.2037087078667
-580.2144463195893,671.380134908455,-426.8022209419119
-557.9938103225874,698.0090040941607,-457.9555709646006
-561.6841632973544,721.2513957365666,-458.0901735047137
-555.7596120999526,744.9128907425065,-403.1356273549072
-591.9391433364095,706.1850886898177,-438.8685228900797
-581.4146523022644,674.9409839241739,-462.1537426134308
-585.8942656258764,643.9191772929594,-473.8896565085937
-623.1475580345991,632.9521294223819,-435.16491360454387
-589.2572896962777,655.6571306205484,-462.2057481402926
-572.5359832358655,725.3802266829142,-438.6431656070116
-601.5550672247914,725.0753315352339,-497.94578168895606
-613.8242926993419,701.8156047172073,-513.7503632739009
-649.349166127067,620.7716192583605,-521.8581268832885
-671.9787083254731,574.731432242407,-498.49336929532524
-664.1625835529973,590.1464822339943,-498.4291271739076
-669.3254067393045,597.5720556968996,-537.7769166840869
-654.4569246378734,597.3161069274421,-553.25212993224
-593.4014163858199,608.274997068316,-571.9975730754131
-586.8395425553069,580.8945970336456,-599.2790606374247
-569.6981130151479,549.3170450663581,-653.8603906532813
-563.2463685356366,545.0811439176478,-689.0711914874091
-530.3656192481633,598.428617315801,-751.5532827214187
-526.7027986111466,590.6267685703069,-755.3965931281325
-507.2445738351018,559.6314745606298,-743.226280126241
-544.4693141898609,552.5332300020905,-704.513773816747
-592.9007357252477,537.8901051837274,-654.1693646658136
-573.251824017376,533.9754146421052,-642.088786690664
-531.8727598109447,525.6708458036129,-668.9124216730485
-512.1698031437851,568.1124543039673,-664.8366159697757
-516.3506396169946,579.6454446727477,-676.7112112699036
-540.0712781632872,591.2589926223533,-696.7292602468734
-525.8584735868009,614.0098810501038,-735.8394558794289
-485.29824149939077,663.4294075958662,-798.1920431543903
-448.4008300489974,701.3404169619596,-852.7121901974681
-465.95014607434763,694.1962851738361,-801.9313425073802
-465.6483100753061,640.2043511290809,-782.1213156378581
-470.6010717217399,625.508201067643,-699.7292653454545
-518.7051643527607,599.3606379344629,-637.5673650023199
-532.9730336047479,568.8721428826359,-598.4316764644401
-554.6756537655572,577.1298047753311,-559.5386803852488
-539.0444239368185,607.9609244747188,-559.4081567099877
-556.0400340585215,615.4068922618835,-606.7841719649423
-541.8537421035726,634.2889773775959,-645.8811112867289
-534.6647428020782,637.9619951767423,-661.4848087777173
-535.4835749210995,657.066378426884,-689.033461987529
-528.2395109441043,629.8572907159937,-696.6823533010763
-505.99032289313885,602.4259048706746,-715.8795307265989
-510.00698505605897,579.2436764848343,-715.8611758347653
-494.3747355111073,552.1467575573719,-703.7622429677822
-490.68438253634014,548.213712123916,-707.6177899690517
-493.9382969719528,556.1175324907078,-691.9947178700169
-461.3930343185492,587.205620675766,-648.4416186975166
-430.56599348401346,586.9680267981422,-647.9786675368246
-430.9473673476672,590.7338387726696,-659.7716855399143
-441.9898742180052,606.4007586688625,-648.2162614144485
-487.79552650497374,610.7284342767409,-637.1431630577212
-472.3264315540986,599.0384076111619,-632.947030841317
-456.42191778028183,591.318136162706,-616.9843932433605
-448.6598379670938,579.6872530374796,-612.9045086752358
-428.8212590436082,602.8531659639124,-600.9106065781893
-434.1737494455294,583.1971162425498,-640.1707004940525
-466.0103093309133,575.4584899022602,-668.0946092702402
-481.80571346994134,579.3436086737062,-680.1180831374629
-509.13512769396283,606.4955922766694,-696.3172948968303
-509.21670499100105,614.1995482657178,-700.2686952221197
-508.3988925881928,595.0951650155762,-672.720042012308
-512.0882258467469,599.0271907328191,-668.8644950110385
-493.0664396098566,583.3694482825431,-672.4508369320819
-493.4753458112608,583.2674766612453,-684.2305986244029
-500.8825643823324,567.9543982909556,-672.5160987697125
-507.90738937353746,587.4942003640388,-656.9888799946975
-508.5080022229814,618.2386441853233,-680.6493552844245
-504.81968868064024,691.5440033038806,-700.4644807350115
-521.0525510750358,710.7666736347276,-728.2446095251692
-540.8381047554467,733.9570597502716,-748.2422641778794
-547.42751092371,738.1593102639537,-716.9583904799296
-555.2711680339363,757.4941493782281,-724.9896753733437
-558.9880336302407,776.8667179923827,-725.111021602688
-592.6876150367353,781.2433399784841,-698.1589023774684
-588.8351271841047,800.5231144172578,-702.0899083784984
-559.9516654515049,820.102685422647,-650.7033492579016
-514.2561425155379,819.6091427755657,-665.7156113453626
-513.192578505402,854.6323158265056,-642.2702961765741
-493.43557687895463,885.5021847419863,-634.2298338372432
-463.0725069213239,916.0426853206753,-653.5004308301001
-438.53303625601,923.9434465388284,-613.9140277260839
-418.9942538991399,943.1722351669531,-609.7607235906248
-382.1498676918214,934.7269454910698,-656.276098361826
-363.99993881702727,911.1266334579088,-683.3974904784
-340.22525531144686,926.5600383413297,-667.3950839481373
-339.87141378554355,957.5441154726641,-663.5691087170442
-315.0331662698272,969.3820009891248,-616.1421076514407
-299.10112015826,984.8398790616573,-604.1808364732096
-239.25499533479837,1023.5299516144659,-552.3955683133385
-201.23793548255523,988.3415845370236,-559.5560155608695
-172.8990022076856,969.1658211519735,-515.8968659022195
-153.05940356798703,973.022387869456,-499.9138339800034
-114.4152182447625,930.2718053565693,-487.4172117899589
-102.06237604074788,868.5901913497476,-451.701651430407
-98.31787613507163,853.086426047631,-451.59356151183124
-102.14293362157312,818.3650889957327,-443.68464256397453
-89.73686223124105,783.7314475381503,-411.9847246511296
-101.51427857627223,733.5614098596362,-408.0679946770814
-109.87544166458476,737.3190641044598,-427.82805545216775
-93.97092789076801,729.5987926560039,-411.8654178542112
-85.1468136417635,772.3004287906676,-388.33036765868064
-106.71432140435319,819.2114534525043,-353.48972380986373
-98.40863087802666,884.9545971356173,-349.66272886255757
-103.93457500777535,924.1800207002392,-294.93252027960625
-111.09706168773232,943.6861721382941,-283.3322286407693
-122.82073898833957,959.1817797107066,-291.40940076376745
-92.67507252731566,958.7728735093025,-310.57904585153955
-114.75886260853605,932.1786746748381,-275.49876869267285
-142.5226759392861,878.1214787924522,-287.50592710048795
-158.31706036210124,824.0785589370479,-287.55997205977576
-139.29527412521097,789.1114702778218,-287.15718415564953
-107.10487271392374,827.8341737494457,-255.40933958079472
-101.31645363095451,909.3900567472074,-216.3511494751011
-101.18134123273494,967.3517460090858,-224.393651246858
-89.92122692254746,982.6352526091989,-236.0510469936217
-101.42648101033484,951.8428821259046,-228.26959257238715
-143.10595361310948,975.519672875039,-213.27568537675967
-202.88069830166268,1030.5354019976241,-171.1858789698827
-252.43074852268614,1050.3688823400448,-160.22087053173104
-259.78290241825704,1042.7923908776188,-148.53186358236505
-267.7897141225597,1019.6040441945008,-152.4985596508492
-275.2234453151688,1019.7366073021878,-144.76095302677268
-237.3165148139273,1026.9969867385907,-163.8408630878027
-200.45479343098816,1104.5158132491729,-116.45465067071837
-219.867130977449,1090.1786032947032,-6.807472480408703
-229.58910535198058,958.4292291455289,-37.90560487016464
-250.32707397531271,846.2135387721598,-57.46080465806367
-250.2444769620615,819.2012562903745,-49.51915281977027
-233.1132445840323,850.408651272351,-6.197009172347336
-183.9282527672549,920.3040793747101,64.94715320726243
-182.42723050175138,901.3710084483489,112.12901449526598
-185.02546741241915,866.9586454089829,155.37721852008588
-201.09313578031237,832.155731060046,143.48018946327238
-175.10158922771794,847.1486185394605,112.42167304839063
-146.4914114401962,866.6608882747934,155.95539761284437
-157.8337148771497,859.0813376637282,163.6603733181056
-157.80720225561228,920.8781796026167,151.67768809940196
-166.11483024274347,970.9911131732039,123.91183533622595
-158.1355508761912,971.0002906191207,131.88091754064845
-177.48568573366035,1017.470797876951,119.66063844432097
-184.5380430626157,994.5231042200958,143.18039289665688
-172.75726165408167,928.8370646449093,163.20150102226552
-217.90723641610543,890.8485568466298,201.89871158856494
-289.54128066159194,884.0868186383731,247.9439971855833
-345.68073705087875,908.1215297782628,290.1928793216848
-418.59044627880064,642.2927299332596,352.79223792018684
-446.41748201475536,566.045489540261,454.67208475881165
-391.11521263632335,648.0653434149276,588.6607557116855
-330.9876461380798,681.96274976674,538.4274956279668
-194.1529472347846,669.8281268323026,599.3871505560003
-132.8343521997828,743.64028490871,686.398515293194
-130.29219968082884,828.2430799508497,631.2063752657635
-129.6008320884298,804.2491574594791,544.9557188234515
-182.12947336756181,716.197682185048,603.3354917326509
-293.8536605262756,740.2385116222157,597.6566921425768
-290.600765806876,770.9533836733237,574.0533209607768
-228.45212177451018,647.0201342966253,614.6492431156411
-178.38099656865495,488.29008886826807,647.3311477415837
-135.96182182498612,318.04642767917693,683.8624810715179
-161.00095343465915,361.2212121366624,730.4369993830718
-207.7437249213544,451.27235090474323,807.9262541234775
-229.77367398652956,490.34379732120556,831.0116094690849
-246.1513360831681,533.6980518321751,905.1878062335254
-270.06266156128754,518.230996313726,885.2594922832977
-216.14210765144063,533.2544752795299,882.0912340095751
-204.60911728266026,548.6063028659125,878.2876925351677
-294.82035149617866,537.307847226117,833.8035924602184
-420.64721388037714,496.144962856837,879.1534315999858
-376.2334742241235,545.53389791621,816.8579484329513
-299.4111138870053,568.0482121825496,806.1590859263868
-289.02530425782504,671.935880244528,751.0189514258183
-299.8230792370484,722.4210102328523,762.4611870516436
-299.6874569807223,761.0743730019936,758.4078151050563
-305.1765893551825,760.6929991383399,711.2316642278455
-289.5739115804072,845.5833541525394,699.4049955897274
-311.6844182264076,757.1923133791867,746.4679579672978
-372.37078920936307,482.7193791967696,719.012098932867
-358.1549254842378,370.3048441618698,707.830910657564
-361.2446656095609,382.11213819194126,727.3676535820082
-428.8080027328395,425.5795812025514,769.3799615566988
-492.79009651613967,430.3304390388156,811.5758184497256
-550.6182029541179,388.2895790101615,818.7005756298023
-623.1414397373212,783.9394696455978,867.3002503403303
-523.4835545267753,527.1494343124309,795.0910861507243
-476.47667654091873,442.0225051368205,835.3290879148334
-419.43986988421125,545.6562638617673,792.6631418476239
-308.83329169492134,459.5442888244202,778.9112489994036
-317.1378605334136,335.87310651445705,787.0536829600322
-296.7506742873459,281.93827657762847,830.7118129024693
-268.90630337577056,366.9102088888663,838.6910922690216
-225.59385722953306,498.1191334451623,838.8970749440432
-231.93853150668173,575.7593061850888,862.0884807758002
-174.9282374715117,617.5952032549342,831.4042002110814
-105.91996247444338,586.0747553955734,828.6193552334387
-92.82211560522708,488.82747931250736,782.0478960705236
-101.97264101400582,419.01056935854757,754.6746340493441
-99.01791131528097,349.24158606659773,743.1803928966569
-106.88767316055944,326.08892945093385,743.1406239643509
-152.55668347498894,330.4512754100534,758.1396297410431
-169.72462563668535,319.54133164740256,820.7134954342208
-192.3266354973411,315.9876206451745,836.0857173448629
-242.89640193134255,448.55684662958305,905.5243125838081
-337.23238822635665,359.9822569378942,869.0878128616807
-362.80279198299115,147.14097066786314,841.951125001912
-391.16823787939825,201.0676428749879,790.3239128550525
-419.87120984230097,290.66194877965467,832.762462206768
-434.11256647275064,302.660949457766,863.905615067327
-484.09803551671575,279.9039427327375,871.0833974904785
-491.0412832108825,272.43146232403524,894.5521661321656
-460.3498646326728,252.8498518862201,895.0773199818492
-463.7394013246114,260.71900190177075,906.7744846609189
-434.41338275557916,318.0331713684082,852.0758872805699
-413.5295947137912,367.49858514375455,777.6539389088017
-379.96767499604863,459.63504356737525,726.825164556704
-345.80718186128803,559.6467703038245,691.6786058439938
-350.4264963060781,663.7557167840191,648.0867574554002
-318.40128892129326,775.8133511443766,659.9623724717411
-315.59299047075206,826.7216633610867,730.475748599165
-301.29656916480144,783.8415768891518,707.2874019160469
-170.79634737652515,728.6341411185268,705.5039182595485
-209.00307444438215,717.4274599378994,716.7432303589912
-240.45724074989934,686.6136754141323,704.6014694110629
-276.0106662315878,640.3195790611474,688.526663029679
-287.1887953582518,655.951828606099,696.1561797351798
-278.4743006021425,702.4886174177727,715.7530859161897
-259.6177083917546,760.1658058562302,692.2924750042064
-270.824389572382,829.8572907159939,687.9647993963281
-232.04560170904438,864.3787633901487,688.429789989446
-235.38007372548222,822.0574814029255,712.0698709549133
-274.10379691331906,756.6549229349473,719.5596865392362
-269.1306409426257,683.5300535860871,766.9764904427099
-285.22482193205633,606.240663223425,763.0719970632174
-340.23647218978965,571.6335343873801,738.8170272213245
-319.29558004007487,512.9794578168896,688.3084437601017
-274.7166463573188,469.7241157785789,649.8753396929635
-256.89506610310355,496.2459147619218,602.958196733849
-291.22483212921844,624.0449083020196,586.3133689894103
-243.9762814008862,747.521324815304,590.5298955300741
-170.7892093630343,801.0156373481261,579.6719572942851
-178.68691143254836,773.9931577042111,579.6444249565347
-180.34904885970238,711.7863898477054,544.5080634059542
-148.06483355682116,602.7838252614298,498.26393314740517
-129.23373425175774,579.3538058358359,490.7751372792952
-80.85656161890147,566.9509975373854,444.446370575069
-61.970295666715955,531.9492385269181,440.92325105923027
-111.574288875406,524.7357660363122,455.90288222787603
-165.05840424609835,513.6830620038444,470.8376458831508
-193.56253154747037,625.5020827703651,403.3150974083913
-198.3184879647994,729.5773786155313,355.7973415998328
-137.04578015938168,810.1053876706113,328.9706474688095
-109.17489662626893,937.5648157117874,328.95841087425373
-88.95616749858515,1092.1262612614912,324.81530390092445
-50.31279794833099,1107.3098356727323,325.34249718303397
-64.38875660903572,1026.660480388308,380.3490488597024
-268.17414713485243,968.5539914241867,624.7434139079095
-406.5251640468458,855.7315699040957,434.6693315250366
-372.22802893954616,975.0862934845233,399.45955040712175
-300.0576139660333,1006.1499084804701,475.00318661316567
-285.98654994315086,937.1763038346429,561.7881743510782
-276.14220962306194,828.5235019094188,534.8299368285807
-261.5449720342829,770.2711935268416,523.4713179322194
-311.4213314434593,743.6790341248031,534.5872443698919
-318.6103307449537,720.6976898329197,554.1810914022628
-294.1249050389277,682.2421520090959,601.7722667781558
-298.11301514788437,604.9996685922308,613.7467942671555
-303.3839282527673,577.640682598033,578.4391203927947
-278.1816420490178,538.3693718038271,535.7782729066502
-285.3981736882626,550.1379166178053,547.4040574508115
-345.88162114483544,620.421856597309,565.8843743786105
-434.76824399769555,784.2382464960003,634.6428189034992
-574.4326553920044,967.5791427245798,679.0280065057896
-601.1084315235071,1048.9616739661353,670.50521839772
-512.8336383984338,1075.219366450317,656.040543916628
-405.035358659685,976.8208307627989,563.7959955744317
-394.8657288676562,953.2113412837209,528.7065409696482
-373.2446860038852,933.3462497386979,489.8512743903372
-396.41977637623455,925.7881131681054,489.5290440670362
-415.05814931704515,860.4416390918409,520.8679824404869
-434.9517929160315,790.9194271234317,516.8798723315302
-457.66189269526296,733.2728301713634,540.2813397031607
-462.49738697720426,729.1939653194516,512.7500216689696
-494.96209204978254,767.6403256973585,457.1897640886542
-486.24759729367327,833.4854410017693,472.79652072828134
-436.26110853349525,836.9341212340607,469.6088878465124
-373.1886016121714,844.5371253180241,509.7744897595
-338.5600587356539,778.6032947030842,522.289466841378
-329.870037168656,705.4141832328064,565.8374674328135
-329.02265299567136,593.6318722499528,613.3225923225567
-372.3911835336226,531.9227259053806,597.182524103542
-407.12781632871577,621.0000356900675,576.7382337495476
-393.63493139859185,760.4248137743267,603.9432425955857
-371.5601148200456,830.4946133491051,670.7560685861125
-379.2385779037694,776.4945215746459,682.5970132512123
-408.00987085294173,656.5330668474965,655.0983261358365
-440.0901429132273,536.7378258630624,643.24820402482
-444.21591471093603,517.3897304380191,639.3263754697069
-466.21731172214777,502.4009218234566,674.3689231286934
-499.8353158316041,499.0735878205096,705.2734623954154
-542.1402823594194,453.0792880341402,716.568858886572
-551.8918285041274,394.69747569251484,669.5242514008352
-599.2505085834613,352.29359669204064,645.4110221125461
-647.354601214482,364.7647259767607,699.5926233729155
-661.4878679263562,430.8576323209251,722.7055110562732
-670.3135117496802,446.0840348131116,687.2010319528076
-620.3555750434655,484.2815844350518,676.046356299042
-593.026160819444,457.1296008320885,692.2455680584095
-574.1950615143807,453.0089276154447,680.7676423651299
-599.6430993254578,476.7723942426823,719.5525485257454
-608.8317621206019,504.48930062763543,782.1151973405802
-613.2318375796017,600.929981186236,746.4026961296672
-605.8623485084103,694.4675296864883,828.6142566523738
-617.2056716615766,725.5066714933236,828.3399529910826
-579.2701891063717,698.0253195535684,817.2270857020492
-556.0400340585215,674.7023703303372,825.5031024865782
-567.9278856694183,686.2955239556833,813.5112398219577
-570.7463812820893,736.7898313899243,832.9225576522055
-594.2202485048412,667.3655121779609,836.7291582752521
-532.8088592944583,593.4524021964687,845.747528462829
-471.18027053071137,569.7980452040198,850.6758169201513
-434.2624647560584,558.5057078615023,917.9852447063982
-418.19479638816523,573.9982562852758,933.8724233045945
-441.28728974726334,558.7361637256353,937.5026130227958
-424.71996043501093,523.1531664737704,867.226830772996
-348.2677570832038,467.3400192726364,750.8221461967136
-197.34771813004443,453.75637959955753,662.8624453814505
-68.7559972059776,417.3790234177829,602.1169308581423
14.028847771665149,443.2584011869497,540.4761054998394
53.70743322133451,508.90059296497793,560.4717207201236
41.08263270331867,551.2035200603673,520.8944950620242
5.228676459341366,558.9003380359247,485.009661811118
-26.85249295121168,516.3435016035038,457.199961250784
-51.962596809307975,446.5082367577104,413.88853482075945
-70.46453172082211,361.88708682373704,453.14353015555776
-47.888422651975965,322.95330209602673,445.7638439222365
15.957029158785113,318.16879362473423,399.6410598930318
115.2187546205891,359.6426914389726,365.6661551090332
176.68112964162077,447.94195775315734,342.7408952088634
169.35446865137436,521.4726741547828,338.4591068305691
79.29731355763693,596.1719853364809,391.8025013638705
-38.225795761039706,697.9886097699011,425.01975700162654
-166.87349910519904,803.8667638796123,469.8311859809416
-250.83285321694976,901.273115691903,472.1693952572999
-318.06886143586246,952.5475060290722,522.0100645990221
-370.9819357272871,964.8095934901319,548.6481112306445
-420.9113203795384,891.8611350461167,567.7688099401937
-459.93484013399075,764.5934136529804,579.3874564708642
-473.29312252400166,702.4417104719757,540.1518357441125
-492.2506666394743,643.7427663881143,449.7988609769901
-482.2176788199844,620.0996262740081,410.7824792360287
-447.0089174182825,591.9340447553446,321.139226953139
-414.0639260093916,532.3061392014603,172.69811811372895
-371.6111006306945,457.6221237629568,79.3951043424615
-336.1576073378779,406.34671370957466,1.6067770339514515
-314.29285229920515,517.8486027338593,-57.3112122896198
-307.54335068550427,652.715249346107,-112.60930083157858
-294.23401467371633,856.7492466846478,-215.13870689787032
-245.80667200318155,1064.491951889789,-305.3805325977781
-158.57096969913275,1233.3773510831936,-379.211045566019
-58.29136351353419,1239.3528880912443,-487.6191156001285
133.3166779685214,1299.383581549255,-528.1222435796118
273.90495225178836,1247.5819979299763,-572.9367317075659
325.01924714352,1153.768106336007,-634.648937200777
298.75645607827346,1061.4735918993745,-595.4846966089339
263.5578918387013,988.2334946184478,-595.7651185675028
231.01364890151075,957.1454064333898,-639.318217740003
188.0173147812964,915.8356829294408,-537.7830349813648
126.70687747599844,990.7705485563368,-432.988839206049
53.37816685616393,1188.2651058210502,-477.92467356334737
46.64967139645037,1346.9125542361562,-482.4848444677847
80.64904936956046,1346.4740762645756,-501.59738544762996
87.89494883573903,1222.7111194954446,-489.29756848669024
21.898303702079712,1076.3410542845927,-474.09359975118923
-56.532760932632456,999.3596182182499,-498.5565917005298
-118.40434806993214,930.2667067755044,-491.40124303406367
-168.17159784431993,880.5320879199321,-472.3560033242749
-244.96642584368772,803.9575186225675,-449.6999485043313
-296.84244874651387,808.7563031208416,-391.6240510265994
-375.9918014816477,790.5156195030924,-337.8034293056243
-431.8304415881061,799.1791284485529,-283.7237996665528
-487.47839476273754,796.3035287279552,-221.75462568767114
-536.617499349931,758.3109420648235,-187.04042664926354
-539.433955530176,731.5678646632642,-151.6705500859111
-558.4282094293159,712.4757180076786,-140.1171653928712
-589.0920956697752,658.6877272055189,-124.69599710400597
-594.552675990272,604.2481377432662,-159.91597538405065
-622.5357283068123,577.1695737076373,-183.79161079471587
-643.7937521987632,565.2337954347306,-239.01434230853556
-678.8842265197596,584.708335670183,-255.30430881085798
-695.1711338734432,634.8131115110665,-291.03924377845647
-703.587871495363,650.1425053407638,-314.763961189601
-723.8363763364657,626.8736010768204,-338.5366052627554
-732.3061392014603,595.845676148328,-354.2575701182361
-748.8642910677959,549.3353999581917,-377.8966313674905
-788.8432849138086,499.0654300908058,-409.72299409074463
-805.4014367801442,433.24580769171945,-429.3719057986163
-833.0010758006049,383.092085472613,-437.4653933810221
-858.0034976266106,348.0413800839227,-484.8169354468652
-881.0970107019218,352.0886337332321,-485.1768952700464
-892.6034884491648,417.8440140109008,-497.344149123299
-909.3543666797531,440.7988456812469,-540.8442230527245
-948.5716325146714,460.23463670060625,-565.0441282191167
-968.1379472092917,456.4463909693933,-573.1743255851896
-976.4986004394979,421.58535279631684,-584.9551069937237
-1014.324973359914,425.922205850112,-565.9139461487869
-1033.1050868543284,418.47011976566927,-550.471363819449
-1024.9065685019862,410.81001157377904,-534.6239541535591
-1053.7543401671317,337.170185537365,-574.0543406769897
-1056.375010834485,255.4144381618596,-632.6870032070076
-1087.037877358731,220.93681328486286,-621.2559844595249
-1102.996436091836,201.60911218407918,-633.2039993269873
-1108.900592964978,205.98267502154152,-582.2865096643604
-1167.7178241295449,179.14272457974948,-606.6250962357176
-1235.5085579683175,163.62570296686434,-670.3818327359497
-1224.0877363829647,144.19297109614396,-670.1452585745388
-1312.9865958303806,183.42757210668273,-687.3081021551703
-1402.1709758174302,222.593852130952,-712.3237802919448
-1449.2002875599724,265.23328557662404,-744.5692463787329
-1468.656472903591,276.9202530935641,-752.7494098392418
-1519.7340580116554,234.58061621450753,-772.9948555317056
-1541.2500701054898,231.30018915735752,-726.2102756802783
-1524.4451469156136,235.39231032003795,-686.7258441975598
-1532.9495801318494,282.58987523772134,-608.5207486756436
-1526.963845961669,313.98897686773773,-553.5916954311616
-1511.5253424971831,356.3571658007577,-561.3527555281366
-1448.9963443173765,383.1338938373451,-540.8829722688176
-1412.6842499732327,383.276654107162,-493.2448899471278
-1382.0723692596353,390.7073261511322,-500.6602662479032
-1319.9818490514092,394.20291332922056,-487.967858544967
-1281.58953363279,393.8704858437897,-491.31660658838655
-1222.3338244966428,405.37288472618076,-451.2213650940944
-1169.7572565555006,390.160758260976,-375.81539057680254
-1123.1664227845392,382.16924229986796,-363.3157092381191
-1078.8087675199993,370.7484207145152,-303.7438880759485
-1064.7978667536827,371.2745942804118,-232.89298588202905
-1059.4749481219378,387.06184068973613,-193.61963565539713
-1039.8250166978532,402.4564963570639,-185.52818750541726
-1015.5578102614044,410.2889365889473,-153.79461895754415
-995.6356146084546,387.1332208246445,-129.87003716865598
-956.4999260705747,356.09101986917045,-105.63138278617062
-912.3931209944275,309.85198819168625,-45.945353408146524
-876.6469691484862,267.3706107590258,-6.020424915745949
-878.9739615465018,252.33591491487923,41.09089240464379
-878.2907516838064,194.57816889559638,72.69291756104278
-870.1452585745388,82.6337230348794,108.51412052025923
-894.2727638898095,-21.711695635104753,100.65557555332353
-939.9305573258963,-138.06141750750768,29.720954658318597
-966.6226489168065,-200.5690016468417,-60.734297644965416
-1008.2474647305656,-169.15562398984363,-45.76527152493461
-998.1685896814919,-141.5865764557724,17.08667077952206
-958.241601362341,-234.22065639132632,76.86651404914014
-924.603202928625,-299.4060153059404,171.7813932382618
-937.636195846696,-315.134118174912,132.39281507956338
-932.1929507018199,-327.3462395415356,69.72166845966768
-964.7922583145112,-327.55324193277016,18.21396705296916
-973.3711308142945,-374.0553603932026,2.5438452478675186
-992.5295590237238,-397.0499609958549,10.183691678605845
-1012.6424416085006,-362.35717599791985,-21.631545940764685
-965.3928711639551,-316.11814432043565,-1.4567155960496194
-949.8421989160418,-335.51212697506287,6.690888325778936
-942.0790993866408,-405.07206844335224,22.74028337913559
-941.0604028898758,-479.18912166743996,-43.712888703073936
-927.3645944333693,-491.32476431809033,-90.56232250564669
-912.5787093451893,-464.56741088954954,-113.97877970560795
-934.8278973961546,-417.82769855149314,-98.7712419633616
-911.9526035904208,-394.8963203540455,-110.280269001137
-888.8866228528602,-383.5030311064431,-113.89720240856973
-888.6418909617455,-329.3754748053617,-118.00054044959289
-876.8906813233879,-341.00227906573605,-109.93662463736342
-867.8753702844499,-329.1480780898676,-74.51984112821403
-851.8331948218813,-356.14302539603233,-50.64073868242469
-813.6805127133119,-352.6739508394814,-61.854761819785566
-782.3640080965469,-283.27512453284254,-61.61981920431545
-748.6644266900523,-268.3413805937808,-92.56239388578159
-767.38743607654,-248.7465138451969,-81.13504611666575
-711.9403669958651,-190.8592638668659,-49.10290466163267
-682.9212830069392,-171.24502251023543,6.210336863250958
-680.621822946674,-179.38847618707717,-36.898533138227634
-703.2819566314696,-131.8788781082225,-367.06622546945187
-841.4687992331734,-164.43331820754287,-235.58911554914272
-929.732375479904,-311.4060357002647,-307.0589854843397
-919.1436423243412,-417.0068270000459,-424.2825021796435
-853.5157265732947,-464.821320226581,-521.2534351689925
-808.7746580126752,-465.5555158999251,-563.7521477772736
-831.3521946842195,-349.3833266202017,-572.331020277057
-857.3794313042682,-402.0078212233536,-423.40758566890844
-824.4548342196368,-640.1615230481358,-202.33311069529353
-794.7525403680156,-716.9227004124754,-107.4383199155675
-884.7108849607156,-525.346576047886,35.77919065124176
-887.6435887892401,-239.30496142923425,3.3733843871250637
-938.419337898263,-277.70747400998306,-9.031504132399954
-1041.4157739900986,-405.0802261730561,-65.08930164735155
-1117.57837793742,-455.45828595901764,-140.62804321557311
-1089.4749991077485,-552.9278601765129,-198.74778849046314
-1140.5321898915533,-683.0905558982936,-89.18376815732182
-1179.3935747681421,-613.360321822437,-113.54845946373125
-1109.8897176915666,-445.80565228696855,79.2334793227045
-1015.391596518689,-121.61543442459964,71.70593423850144
-1011.971468340361,159.1685233999378,-109.72248423263807
-1100.589905829208,251.54359541739538,-240.8743046810073
-1204.3358333375822,314.21229471837995,-246.56432114942413
-1183.8599317809856,189.790601275665,-296.8577444897085
-1223.159794629155,9.382011186286856,-171.25012109130031
-1035.9704894127965,-152.69026629888904,40.10564259966451
-939.0943900312544,-109.8224164215099,159.1511882243172
-932.3438687013405,-13.574054340676993,111.83125736107642
-937.6994182519007,101.93593123033861,44.643277775795
-949.5056925657591,125.13447507558648,32.61429744102217
-1056.2832363753168,110.80134398596871,66.38474912431872
-1142.7551712358452,103.30744953679391,18.019405199532972
-1149.2609606746444,138.42545619554082,45.27580774270521
-1172.8469966808238,150.0726547801747,29.1847878735348
-1068.3056905263265,83.74082892730954,58.44666629277072
-1010.8701748303448,153.7140613767189,145.41255168686556
-979.3334115115764,157.5155634187006,165.49484278525287
-975.3973069294816,130.47268945052593,173.49451647606475
-950.250085401233,122.08246445014353,122.87988252869226
-919.7768860926005,110.17013965013538,115.52670891690843
-945.7419200236575,118.35540169170922,142.58283919585182
-960.1739635859342,103.27277918555268,173.81470736693979
-947.8517128683088,172.88880504555584,181.613496963795
-1019.4592444922579,208.61456256723756,219.66624688349233
-1022.8467417517705,216.48473229900122,231.36341156256216
-1031.7386671289382,228.830436489525,305.75578816415396
-1069.53954714403,237.0360928553584,324.78573213074804
-1085.3553456073178,237.052408314766,312.774494858081
-1076.9426868502496,241.03236069401888,332.51008244405585
-1095.8788169252498,268.29651308040974,336.058694865219
-1076.748940769784,268.1139838782867,332.42136713352676
-1046.2288345153545,244.62889977719203,329.0338698740141
-885.6316887010345,181.27495118108632,308.1052143188551
-880.0619987457491,270.4991001004421,339.28405724686826
-952.3517205161805,306.0545650145565,357.70523063431455
-935.929190906171,313.9124981517644,385.3966441139432
-927.7316922700413,344.8710823777743,393.26375469706784
-930.9030096924027,325.76160054656793,416.8293963789878
-829.9133751077076,297.15958048875,336.0209653653389
-826.0863801604014,273.95185919758535,340.081475325417
-842.4089775815391,267.1156817057813,426.20160809246795
-827.3508282644941,351.8683750312288,398.66927034206384
-904.229272993326,340.9258003497627,405.40347621257007
-899.6385106024994,290.87608918438,437.0381322877843
-867.9936573651554,348.77149689241486,449.0901582089705
-865.4474259813495,278.89952226295424,425.8171750801752
-805.4840337933954,289.5851284587499,375.6583542800039
-771.2929491722455,258.29921532837415,368.4275466137774
-798.5948310585165,289.3210219595887,352.21507854364137
-833.3396215833134,344.6355279325764,449.62346978835797
-798.6692703420639,426.4616357267773,544.0573488398179
-886.7166667516431,387.6767295661618,456.5279682664315
-851.4609984041442,314.1766046509257,488.7010345020981
-824.814794042818,325.4720011420822,477.28837064644915
-802.2943614792005,375.34734083504566,449.9854690439651
-766.8225132945503,352.10596890885273,478.06743383316433
-780.7814085340051,301.38936334018246,419.1594479256423
-784.3086069146957,367.15290134755503,414.96025656059925
-737.2772557397277,421.06019894663325,427.2570143729001
-767.9136096424367,390.4513773816747,438.6747768096139
-788.6821697521581,428.8426730840808,387.2147981216828
-800.1692728913545,445.3947066531384,496.8760993815422
-815.528238491228,453.2506003579204,496.6191308958717
-836.6577781403437,426.8960348335059,559.1858585755585
-855.6255194179461,450.29138390785846,562.7477273074904
-856.1710675918893,450.15474193531946,547.0410384789914
-822.7712827520103,422.5316494419604,516.2374511173541
-784.9989547908818,371.8384973461886,505.20106254429396
-717.8282084095997,433.5394859610571,541.3204305241852
-734.6423090453927,472.9229655386906,603.7291021908603
-765.032911340774,457.8230078569134,619.0238256693162
-697.6408865412757,395.99863358027466,686.9603789265449
-695.5504683046709,428.415411990843,851.7159274573887
-427.165239913732,517.6813692749308,686.676897819337
-529.0542641982737,495.8533240199253,751.9428143147762
-611.2484895453596,444.95826811398393,613.5214369840874
-736.1402721622574,395.3093054203016,576.4965610070718
-760.3789265447426,372.0363222915063,548.7398856898126
-785.8993642069413,398.64581686916534,473.6999892929798
-847.1730917285721,395.35519264988557,484.56710497468555
-813.1196687961741,402.6543213023816,465.42907108951584
-853.4800365058405,451.8260568083903,735.4580820157751
-672.8658614307639,443.57451321297293,836.3059760468661
-558.1814381057752,460.7648891313548,696.6803138686504
-529.7803021419139,425.1604778390175,634.4317376474129
-518.9386793655327,464.50724763298376,716.8778328991043
-578.8490463104118,500.17794047916476,759.0308617111859
-575.3228676459341,511.6517873075924,747.2714943431243
-596.6063844432095,418.60880117063425,708.020577873178
-577.8854144891477,437.6326268399505,688.613338907782
-555.8544457077595,417.8705266324382,661.537834020792
-475.8138610024831,452.77847175131166,741.1113887005248
-474.81351939755166,504.230292709539,870.4654494654139
-429.5829870547027,592.4439028618336,823.750210316469
-440.05139369713413,534.8778634905906,866.9576256927699
-446.24922883961403,491.83870128943124,808.1414142444158
-477.31182411934765,394.4741578418726,709.8886979753536
-521.5624091815248,387.6063691474663,768.1185726012452
-609.6485548071972,465.66564525092673,766.5359730387034
-663.0255999755269,547.3255393024122,765.4601724340117
-678.7944914930175,535.7701151769463,757.4146115136158
-716.701421994259,509.19121208567657,780.4836513998155
-680.209857596631,411.8338066516089,742.1127500216691
-595.7865326079752,341.5763792936426,747.5386599909247
-634.0238511622216,442.35799177089024,734.8523705852662
-534.9533224903511,533.9886709528739,685.0066026624792
-459.41172571673303,567.7677902239807,635.0048181591064
-451.0765653918515,521.5226402492187,662.7574146115137
-560.8908240836577,507.4240438885859,720.029775713419
-678.9025814115932,500.9855557198432,761.4547271494343
-730.8224521115775,396.6430942268767,729.6314235748192
-683.3791355865663,315.4879597008153,781.6359307204806
-618.1427908613034,276.29414733879565,782.7453819602006
-552.9870037168657,225.4949447568742,783.8925626998007
-554.9050899134771,249.18193266813847,834.8049537813628
-568.7660923964861,353.96185241647254,857.7913966543113
-593.0965212381395,401.1757327935636,923.9862746197736
-597.3038703328864,389.5315933575686,916.1130457393708
-601.4021097928447,354.74295503561365,916.1691301310847
-606.1815196830722,300.4736581809283,900.581748099504
-600.0836167294642,284.5630261098337,857.5558422091134
-546.5719690210215,318.7938796632898,838.6186924179002
-508.3917545747019,306.8213916067159,831.3817664543958
-486.98995069672117,333.24529783361294,776.6688930470651
-544.9281864857011,352.9666093926061,767.8850575884733
-576.4669892368954,426.4024921864246,731.8431880407683
-551.7001218560875,383.15938674266954,677.4158351730714
-545.902015469095,363.3116303732672,626.5493313210934
-530.9244237328752,378.5308948519627,611.0241519785044
-498.0966996884768,327.5930108650763,568.5162619243065
-470.87639509924395,284.96581401395997,584.7664594943228
-438.00380354147444,304.550483600414,640.1380695752373
-409.33958079466487,351.1086864525603,679.6561516929839
-383.5203662820638,405.6737010090092,746.5770676020865
-347.4499446803955,448.235636022495,778.3707994065253
-305.33464536819406,447.8399861318596,771.1542677672804
-309.5960394222288,409.14787414662504,767.295661617372
-306.20548301407723,401.2787241310744,755.5995166545151
-340.17834836564987,424.8953516236432,770.7096714984222
-343.95027863745526,436.5313333299344,770.6138181744022
-358.0274609576155,413.81409553721204,813.6499212269226
-344.42138752785104,414.23829748181083,872.7220814447339
-336.87854670045334,410.27568027817864,868.9236385513912
-293.7261959996533,383.1063614995947,897.1340875834255
-286.48111230644514,317.27858137080455,897.4644756364304
-262.7604737601526,286.3556872122489,921.4726741547828
-259.50655932454004,259.14252063650684,909.8387318809177
-260.16121713327186,282.14935783371493,886.2037494965152
-233.05104189504064,301.28433257024574,886.5453544278628
-171.36840817200576,323.9862746197734,883.4678508970954
-121.87546205890902,392.9629384142394,852.5796270897811
-111.76905467208476,424.4007892603489,915.4186189983329
-85.74977183849737,443.2624800518016,884.3478659888954
-66.31856954209644,427.7077289390363,892.5412857601731
-44.92400564922782,420.3678116380212,955.6800742353404
-59.76485344128729,405.18321751056686,975.1321807141073
-74.66005210749849,382.261016759036,994.6097800981988
-44.868431115620524,370.1773796352475,967.624010237951
-18.303294193226026,369.8663661902893,956.2490758821821
20.36730177991465,388.91262561629105,956.764032569736
24.874549412898393,423.8042552757568,968.4877098703431
18.393946964559763,462.790045530329,995.7314679324745
22.765572341217442,459.0283124206534,1011.5085171796691
49.52190605354531,447.18022974206286,1008.0241468799234
68.27142806157048,431.45314658930425,996.583950686524
79.58589324590967,454.474259813494,984.9020817506489
70.81490621160133,477.43826892975693,949.3721097418589
63.080460707785036,492.9379553670214,945.2789688629656
43.34925790152601,504.55660189769196,929.2459708463136
-9.808640055472562,520.6191716845202,948.0189463272371
-5.219040141128724,528.4974991459877,967.6841734945166
52.991898354687905,528.1538547822142,980.3306939678688
138.01349084549773,523.6987146477136,989.468370952364
183.73654611921506,527.0739753126705,974.4438722703472
229.18733716406726,511.070549066195,955.555668857357
245.6200639362066,475.45390117930185,881.3539791875921
230.17952103929477,413.77534632111895,893.1041691097369
228.27061228860012,413.2970994172323,838.1333075005226
196.4340524032162,424.8678192858928,806.2202688991655
218.57413081939296,381.9622399086335,787.0730575680789
257.1092065078289,362.35513656549386,791.64138620222
319.2547913915558,392.8966568603958,800.3181514584492
369.81334094721444,400.34976266105144,812.8239510944105
470.9375780720226,429.709431865112,723.9740380252176
525.6035445335564,428.4765949636217,634.5306501200716
577.7253190437102,400.56900164684174,588.3099733344211
574.6172240265535,365.03189162456096,505.96584970402745
526.4397118281983,341.73239587422825,454.3029474897137
487.22448542570606,303.2401482667374,442.0714515150434
479.4093803694432,287.82407855893706,442.0061896774128
453.93381022061567,307.71874187413647,480.8043521487971
413.0717421341641,389.5285342089297,507.38835382113166
362.7844370911576,459.3811342303438,486.7768300082088
345.65218499691537,486.1027975914303,431.48475779190653
406.0805677779874,466.00928961470026,401.06050486149707
457.68432645194844,422.5234917122565,343.1110521941744
520.630388562863,386.61724442087774,277.4566238215905
600.7352153895572,366.4778492145636,259.10173198798776
671.7604890558958,389.53057364135566,303.258503158571
695.2068239408974,474.3954357502308,295.47398958869746
659.1792304201741,579.5934391458858,345.5991597538405
587.5441664584747,630.7607592806922,379.67603615913697
545.9203703609286,584.9367521018901,410.6040288987575
522.801364380293,527.1871638123112,422.225734578067
506.7877409716877,480.81250987850086,414.29336215731166
557.2382006087706,434.1727297293164,434.8294269704742
620.4850790025137,402.2036067362453,377.01559655947756
663.2275037856965,394.2416625453137,389.45613435780825
701.8441567711707,386.24096913828885,393.9867334920692
771.7242891303351,401.28280299592626,406.75663962719176
825.8620425935463,447.2567084580362,403.48742944838455
845.4569093421302,435.6044112923374,415.59452004507153
832.7522650446382,408.3728898247618,388.0234330785743
824.2549698418932,354.16783509149406,376.30485435903194
823.1108482509319,326.8475983133894,348.9081388649539
833.5537619880388,303.30642982058095,321.6715188163135
833.689384244365,341.95877287350936,317.6181468697262
864.870266604804,372.70525612721985,321.9060535452984
1003.1223710441385,426.5778833750568,410.13699887321366
1285.3522864586787,478.7047564662755,429.8868624861701
1674.853288329858,556.8741619207376,427.60881646637745
2046.9681287697636,607.6366547189917,374.14203627130576
2144.7895050807365,695.0915960088308,288.97023958232427
1791.7433578235182,728.0987901067134,209.00307444438215
1291.1340773862635,619.0605354529835,123.37954347305147
927.8489596345338,509.59603942222884,110.45871933840813
702.9597263081685,391.25491375750136,91.7904687125573
618.2396639015362,322.4097933545095,106.45225433761786
572.2463838313798,183.80078824063264,141.55292582074412
602.3667613303218,121.59402038412712,134.3639265192497
623.0792370483294,114.08483019175765,177.87113846216602
632.9949575033269,118.44105785359936,240.79884568124692
688.3604492869636,145.41357140307855,276.85805040457245
808.3637123788451,125.31802399392251,298.34653016065636
943.2905222476586,93.39529808854198,308.3244533046453
1030.9942742934643,77.03079033105088,286.1456256723754
1094.624565983287,60.6053035440237,236.1346637230859
1093.7476100401261,71.97208017008867,208.61048370238566
1043.9752616846733,138.09302871011,203.71788531251755
978.8775983643753,196.62983791610796,202.54521166759292
939.6878648672075,239.2437784564556,174.3419006490494
924.3278795511211,227.7913456685005,178.0750817047616
920.5845013332791,204.6764185527168,185.9462711527382
909.3237751933638,189.3939316688166,197.60264718328892
901.9451086762555,177.9496566105653,209.3049104434236
873.32677315903,124.67560277974641,283.623867477681
911.862868563679,85.75905125603546,292.18132593699175
907.8727190222962,66.4452182957483,292.18642451805664
892.3505988283463,51.089311844513674,292.00593474835955
869.584414657401,24.323596743026417,307.4536156587622
889.4535850672759,-25.87917382592425,335.39282017814446
915.4461513360833,-30.195632555459817,308.3244533046453
908.8016804923191,-14.421744428525543,335.64469008275
886.2261832532008,5.203000005098581,347.0135061412409
871.6034527590973,-17.65087976016275,374.3439400814754
885.154461513361,-5.655131976770865,429.4514436632286
890.8077681981106,17.937929874116037,476.55213554067905
879.8193062870605,22.032702298950205,492.0722163022032
861.5347748721531,6.9802226040492945,523.2459606491514
857.2448287641552,-16.27079583751842,515.410461268629
852.7111704812552,-74.34026910310861,507.68917010396007
855.256382148848,-124.9029994952405,480.4260374337822
843.3430376326269,-175.10668780878282,480.41685998786545
831.1829217928652,-202.20156730381936,468.5524618498672
822.2767203887158,-237.20026716564783,441.0639718966212
831.1023642120399,-233.11732344888418,472.58034089113005
812.3528422040147,-217.39024029612563,484.0195173683165
818.168283766628,-189.89461232938876,535.0338800711762
834.6173259981747,-139.54918346224247,554.7337775896968
851.0949202836852,-123.95364370095804,582.4007178802141
862.9001748813307,-108.53451484451878,586.4500109619494
850.4402624749532,-120.25615271270007,562.7548653209813
849.949778976511,-131.96555398632563,551.0128331285405
840.7988456812469,-182.47311773133538,519.6494215659783
820.5778731778946,-221.18256489219053,499.85469043965077
831.9201766148483,-232.91134077386266,496.1388445595591
828.3939979503706,-225.07584139334028,503.9090821024509
847.769625713164,-209.750526428495,504.14769569628777
862.9654367189612,-202.2005475876064,496.5008438151663
877.7778344286786,-152.26504463807723,469.0816945644028
870.0708192909914,-152.2059010977245,468.9664666323362
861.5194791289586,-175.52987003716868,449.2930817353531
891.394105020573,-233.9351358516925,434.2390112831599
890.9026018059175,-245.64351740910507,422.4979988069321
870.1085487908716,-230.43037122768735,375.0393865387263
851.00416554073,-226.37903871352603,378.6644776758628
856.3036306995764,-233.76994182519007,421.9391943222202
875.4610391927928,-210.77432150632484,414.29948045458957
880.7319522976755,-183.41533551212697,449.6081740451633
846.4327777579501,-186.91398183885426,460.88011706342127
851.0775851080646,-190.60739396226035,484.5100008667589
854.6037637725423,-198.44289334278272,476.73976332386707
854.4946541377536,-213.91810659093576,476.7897294183029
855.3685509322755,-244.59422942595077,508.3040589803858
848.1520192930308,-213.51633840302247,515.9396939831645
836.8902734369027,-190.18013286902257,519.6167906471629
818.4966323872067,-201.39803092799275,546.8513712633775
787.0149337439392,-236.08163848001107,534.722866626218
767.0121805101641,-282.46037127867316,522.8064629613579
764.3588789239956,-305.2999750169528,562.0900103501197
769.8480112984557,-285.61027466056197,605.2760116859479
679.2554032212836,-178.15767871801282,858.6571357191295
617.4718175931639,-143.95333778609415,735.9536640952824
693.2224561904422,-112.9876155465934,803.70156985311
758.5413979289565,-140.5739982562853,804.7732915929498
727.3870281900548,-206.07037061585763,808.4524276893742
710.5025671355662,-260.3875941325529,776.9860247893013
704.2231546960481,-315.03214655361415,718.2065231246145
688.2095312874428,-322.7881080695243,702.2948713373069
676.4297695951218,-295.7197411960252,690.2530425782505
664.5684306057625,-241.6401115569537,670.2696639525221
657.1326599807275,-183.58358868726836,666.0378416686636
668.0650375000638,-118.17797107065105,634.5836753631465
672.7904024310035,-110.26497325794232,658.1758296666039
675.9902719073283,-106.59705403986072,638.5881009315109
684.2418155027457,-87.21061728520954,650.4198681506938
691.6755466953547,-68.02904151774561,638.6931317014476
691.1299985214115,-68.16588743352726,622.9864428729485
681.5334492410763,-59.860298878822036,677.759479536845
664.0657105127644,-55.398122702451914,728.5036174432656
660.6211091453249,-55.26576353800738,740.2252553114469
622.3317850642167,-39.45914252063651,743.5230175442176
606.3722066148991,-20.167539373792277,723.5957233102029
610.5785359934331,49.40555643364453,719.4995232826706
615.112194276333,126.78437590818477,723.2306649059567
629.3535509067827,114.7853752300735,692.0875120453978
636.4619926274519,48.92363855139116,688.4919926784377
651.4395843636717,25.52380272570144,680.9460927024011
655.2400666894404,-40.17161823864419,692.9981186235871
711.6793196453428,-98.88820341299018,666.5691138156252
770.6556265391342,-164.69232612563925,714.7700794868789
793.9388068300592,-103.04028388899371,707.0620446329788
833.7260940280321,-21.923184777676376,727.006674042614
823.474886938965,-29.229247500420634,766.1240076886603
798.0584603304901,-175.38303090249985,840.8039442623118
773.5506008677786,-353.19910468916504,837.1125715713318
745.8398127801033,-380.2093477385244,821.0897707168095
691.2635813453116,-333.60729708922014,792.6427475233644
674.4851707769728,-256.5922103878491,737.1875207129856
654.4528457730214,-210.29301545379923,705.3336256519812
619.825322612717,-182.97787725675946,700.7989476528683
615.2906446136042,-183.1196178103634,681.1082275802645
600.9932035914405,-120.93018512947849,700.307444438213
600.2008840939567,-59.33810220615603,664.7662555510801
587.2647642161187,157.6685208506473,691.3125277235347
591.0326156230722,339.1270209500696,651.5109644985802
612.6995457164272,351.1657905604871,718.5134577047208
612.6964865677883,467.02288753040034,694.574599888851
710.9247296477391,380.7946648447737,657.0908516159953
824.7311773133538,298.3516287417212,623.751230032682
879.608225030974,236.37735618177464,664.0290007290971
837.2206614899076,178.77562674307742,675.3621267201338
755.5352745330975,148.31466402900074,658.5429275032759
740.2293341762988,183.2175105668093,654.2713362871115
729.869017452443,218.36508899573252,681.4702268358717
706.6378426883799,260.9963647117008,669.2040605099601
707.9186062518802,288.3512718410467,700.5277031402162
708.3009998317469,284.5854598665192,712.320721143306
695.6228681557923,241.91339550203182,688.7265274074226
707.0753009437475,226.3494669433497,688.9508649742778
697.4328644338282,183.4428678498774,641.8552716778921
704.8951476804006,148.56449450118035,642.0847078258122
723.6997343639266,101.95673344108336,638.5993178098536
727.2534453661547,97.98983342935662,630.8168436724061
723.5630923913875,121.23202112851995,630.6832608485059
716.4556703869315,129.16541326548824,646.248209123401
725.2813142102555,94.62966456435176,685.7428377682492
721.1004777370458,86.85361463904597,677.8573722932908
714.2398270561304,52.3682399188306,709.26769080165
706.6419215532318,48.593250498386304,713.0916266003172
687.456980722265,41.03878490616062,716.7544472373339
683.4943635186329,44.90299949524048,712.7571596824605
695.9267435872597,72.06589406168264,732.4754120928147
705.9872637445001,90.90973981940827,685.4664946745321
694.7255178883718,133.5552915623582,685.154461513361
721.2901449526597,171.86297053530004,665.8002477910399
720.7445967787165,152.41698235381094,654.0837085039234
728.5342089296549,144.65388282441,658.1503367612794
735.6406112178981,136.7204906874417,642.5853884863843
750.5641579948301,105.58243640794767,635.064981415672
758.5444570775954,86.28236961653573,647.0231934452643
739.9325967583222,63.42410507155859,670.3695961413939
724.327879551121,55.77144080802313,666.2366863301944
718.3390862323016,48.538185822885495,717.1919054927015
721.9193098560671,67.74943533214707,705.4070452193155
725.5535784391204,94.69808752224257,693.5966920406051
721.5909612354883,117.87205620675766,685.6092549443491
710.3852997710737,129.63550243967106,693.2510082444056
709.9763935696697,110.22316489321024,685.4613960934673
721.8917775183168,102.4998342961154,697.440002447319
726.0450816537758,106.40738682424683,705.337704516833
718.0382699494731,83.21985591409911,701.3720281645619
712.9305114386667,79.07307796240308,665.9878755742278
723.1001412306956,55.46358848332509,630.8984209694443
725.5821304930838,59.94799447313813,701.5627150963887
717.9842249901852,75.48245323326519,701.3965013536733
714.2663396776677,114.1653877725829,697.2860252991594
714.0481204080905,121.83467341038991,689.4076978376918
710.466877068112,121.9325661668358,697.2034282859081
710.1120158259957,129.56718145340153,685.3981736882627
706.2595279733652,110.28740701462785,689.3301994055055
721.372741965911,106.23097591940166,681.7210770242642
709.1861135046117,94.57765903748988,665.8787659394391
725.254801588718,71.45151504336344,689.7452239041876
713.6667465444368,67.67214084320335,689.5851284587501
701.5341630424253,63.75581875564031,673.7173244686005
716.5933320756834,71.27163710339413,662.144565167514
713.0946857489562,63.66659358700475,673.8916959410197
713.5851692473985,75.3753830309025,685.6327084172476
717.9016279769342,83.18569542096435,697.4451010283839
713.9124981517645,83.18120866962725,693.4610697842792
721.8917775183168,102.4998342961154,697.440002447319
717.2745025059527,90.75209169288189,677.7870118745954
729.1888667383868,102.33769941825192,685.7754686870644
720.7466362111425,94.4884338688543,666.0531374118583
724.9539853058894,106.13308316295576,673.925346576048
710.0855032044583,87.07968572346317,693.3907093655836
713.4760596126099,79.20982190656342,681.6935446865139
724.9539853058894,86.823838925627,677.9154961174306
721.7826678835281,87.02462104796236,697.4899685417549
740.449592878302,98.31094206482337,678.1082224816834
732.9067520509043,82.96400911626294,685.8968149164089
712.8214018038781,63.59817062911393,666.0378416686636
713.1762630459945,55.96335139930558,677.8430962663091
733.015861685693,59.820122060030705,693.8261281885252
713.1211983704936,67.5352949274217,673.8784396302509
708.9954265727848,48.1871995023785,669.9576307913508
721.046432777758,59.80676377764069,681.873014739998
729.3815931026396,52.18081607888526,701.6463318258529
717.438676816242,56.036159136912204,689.68098178277
702.2703981481955,52.35488163644059,697.3145773531228
725.1456919539294,55.97670968169559,689.7962097148364
698.4179102955649,33.07520916928819,701.2466030703656
701.6167600556767,17.433782178419747,685.6490238766552
687.5120453977659,10.157383000311015,724.7082336985618
672.998424538451,2.778390174014572,751.9887015443603
688.9845156093061,25.974313348595086,763.9234601010539
680.4596880688105,6.519188509837713,744.2388583257281
736.844896065425,-40.625493925040665,713.8451968817079
725.7748568573367,-9.518000540449593,721.4237277765599
694.1289839037796,-28.79454247882815,701.3914027726084
720.584501333279,-25.27101507650421,686.0773046861059
702.0542183110441,-17.213727419659108,705.3958283409728
717.9587320848609,-5.62396944930226,717.3683163975467
739.9611488122856,-9.944863944364284,686.3159182799427
786.7763201501023,-44.91523608979622,710.6830569052634
783.142051567049,-91.17333646046306,726.4825399091434
755.2946215068347,-79.598333783708,698.5545522681039
723.59470359399,-87.30290160248404,674.5575706280943
701.1558483274106,-86.9533428846752,693.8434633641459
689.3495740135521,-63.75439115294215,681.8148909158582
692.220075153085,-29.27340121244258,646.4195214471813
679.7591430304947,-2.3767443520468254,614.745096439661
678.5854496693571,43.67169216806963,571.402058807034
674.6493450872623,109.33295263928049,555.42310574967
669.2937955367022,186.2236339626682,496.2143035593195
671.6462808400423,263.05619146191617,437.12072930103557
694.110629011946,363.1219631576533,397.87287197972813
728.4903611324969,416.8457118383954,378.58392009503757
771.9129366297361,486.29144509083125,394.6984954087278
773.3578745035257,498.2404796745067,433.9259584057757
764.9064665303647,533.8663050073164,516.0967302799631
765.2776432318886,612.1937664747901,621.8025523496812
745.537976781062,628.6683016116616,715.641936848975
718.2554695028375,629.7950880270021,817.2699137829943
706.1239057170391,567.9513391423168,813.3715387007796
703.2890946449604,513.1732038973555,742.8714188841246
748.2228895698328,462.28324657247896,716.243569414632
757.4655973242648,422.99358088643936,657.6455772358554
802.3708401951737,406.8535126674247,623.0506849943661
813.4959440787629,383.48365649839656,615.4466611941897
771.3000871857363,333.6542040350171,630.68122141608
745.0903213635646,287.71190977550947,661.8406897360466
720.9893286698314,225.8538848638424,645.9902209215176
721.1800156016582,195.00644970504712,657.8709345189235
731.3781974476505,155.95641732905733,626.7583731447539
743.8381098540277,167.67907491345161,650.453518785722
735.7221885149364,167.63522711629355,638.5575094451215
732.0869002156701,159.99653296487588,646.3787327986622
729.0512050496347,179.54041390281088,665.8899828177819
698.6606027542535,164.4404562210337,681.1847062962378
690.6272784284134,118.07599944935325,681.2203963636921
683.6850504504597,71.98411282140181,712.6684443719313
671.7706862180256,21.780016621374273,712.6592669260147
663.9831134995131,-9.076106519555609,716.5719180352108
651.7679329842506,-5.289125236446697,696.7527137197719
656.0578790922486,-1.3475549754503322,708.5773429254639
656.0843917137861,21.83059454553798,704.5749567895256
675.9780353127726,33.424767887097026,720.5324958064172
679.9131201786544,64.3106463471216,716.5627405892941
687.2652740742252,91.19536233066339,700.8835840985454
691.2819362371453,114.37748874488233,700.8662489229248
706.4226825674416,133.5002268868574,689.2537206895322
714.2653199614548,152.784080190483,689.306745932607
740.8299470257429,152.47306674552473,677.9318115768383
710.5484543651503,152.84832231190063,693.1755492446453
707.1578979569987,160.7174723274513,704.8716942075021
710.6024993244381,160.58592893597714,693.1500563393208
718.555266069453,156.7252833536427,701.1313751382991
722.3812413005461,172.13625448037814,697.212605731825
713.8288814223004,168.12163174988402,673.5500910096721
715.2197743368022,172.33305970948288,712.8030469120445
699.1245736311586,152.97170797367096,696.9281049084041
710.2486577985347,148.91119801359284,685.334951283058
703.167748415616,160.71339346259938,700.8876629633974
702.4600653638093,137.3639316178308,685.2574528508717
717.3285474652405,137.10798284837333,669.7822396027186
710.6575639999389,149.01316963489063,697.114712975379
698.824777064543,129.72523746641312,693.0776564881994
714.4294942717443,137.37718792859948,697.2105662993989
713.0651139787798,156.34492920620193,653.9552242610882
701.831920176615,164.23957212707705,661.6092141557006
702.7588422142119,179.91974833403867,685.1177517296937
717.9811658415464,191.3385304869655,677.4586632540165
717.8730759229708,175.86433695502544,677.5086293484525
721.8897380858908,160.42787292296558,685.4705735393841
709.9213288941688,141.10527040324678,677.5065899160264
718.3095144621252,141.21641947046137,697.25543381277
718.2554695028375,133.47881284638487,697.2809267180944
713.1477109920311,129.3326467244166,661.8967741277603
697.7336807166566,110.141587596172,665.655448088797
702.0511591624052,117.95261378758293,677.4668209837203
706.1769309601139,137.30070921262615,681.3886495388334
706.0413087037878,117.95669265243484,681.4518719440381
706.2860405949026,133.46555653561617,685.3278132695672
717.7914986259325,144.9485808099606,681.5365083897152
714.1562103266662,137.30886694232998,689.3567120270429
703.3054101043681,141.4376978886776,708.803719924745
710.1395481637461,152.74533097438984,681.3957875523244
721.5899415192753,156.49074862465778,677.6299755777967
710.3027027578227,156.64778492145638,685.3094583777336
710.6565442837259,168.32251584384068,693.1245634339964
702.8139068897126,168.34800874916513,689.0824083657519
702.5956876201354,176.01729438697214,681.2040809042844
706.3400855541903,160.51250936864272,681.3121708228601
706.3951502296911,148.94076978376918,685.2768274589183
718.0912951925479,148.88570510826838,689.3771063513026
717.8455435852203,152.68618743403712,681.5110154843908
709.3757807202256,121.65826250554473,665.7910703451231
698.3608061876381,121.88463950482581,681.3233877012028
710.3852997710737,129.63550243967106,693.2510082444056
698.551493119465,129.6569164801436,685.2248219320563
702.8954841867509,141.3357262673798,697.023958232424
702.6232199578858,141.26740528111029,689.171123676281
706.313572932653,137.3343598476544,685.3145569587984
697.624571081868,133.28608648213205,657.7261348166807
718.2830018405879,137.3476161584231,697.2676704073257
702.1867814187312,137.29561063156126,677.4035985785157
728.80647315852,125.41285760172946,669.9933208588051
714.0195683541272,137.2752163073017,685.4308046070779
725.0080302651772,133.18003599598234,669.9107238455539
729.1613344006364,137.08758852411376,677.8084259150679
704.5402864382843,136.88976357879605,634.2696027695494
702.9230165245013,145.20452957941805,697.0117216378683
710.0844834882453,145.0077243503133,681.4212804576487
713.6922394497611,148.7786349059057,673.6133134148766
706.8856337281335,160.64915134118178,697.0188596513591
717.491702059317,160.3208027206029,669.7067806029584
717.627324315643,160.35445335563116,673.6326880229234
710.0304385289575,137.2701177262368,681.4467733629732
732.8781999969409,137.02334640269615,673.9406423192426
709.866264218668,133.36766377917027,677.5320828213509
709.5939999898029,133.29934279290075,669.6792482652079
714.5386039065329,114.23370875885242,705.1388598553024
713.8574334762636,114.06239643507215,685.5062636068383
710.2486577985347,110.29250559569272,693.3142306496103
713.9655233948394,129.53760968322516,685.4562975124024
722.1905543687193,145.0556510123233,697.300301326141
725.4720011420823,121.7102680324066,685.6551421739331
714.1562103266662,137.30886694232998,689.3567120270429
710.1395481637461,133.4359847654398,685.3859370937068
702.2143137564817,141.1644139435995,677.39136198396
702.432533026059,133.49512830579252,685.2696894454274
702.2958910535199,133.46147767076425,681.3427623092493
713.5015525179343,141.00635793058794,669.7118791840232
702.1878011349443,117.98626442261119,681.3937481198983
709.9478415157063,144.97407371528504,677.4943533214707
706.449195188979,137.36903019889564,689.2414840949765
713.7197717875116,133.33809200899393,677.5902066454906
725.6626880739091,129.48254500772435,689.5555566885736
718.3921114753765,133.51348319762613,701.2068341380595
701.9695818653669,125.6555500604182,673.5154206584309
724.8989206303887,117.7048227478293,669.9606899399898
709.6215323275534,117.85879989598895,673.6561414958218
709.5124226927646,121.69293285678597,669.7169777650881
728.6157862266932,136.9509465515747,662.1027568027819
721.4002743036614,129.40912544038994,677.7186908883258
710.2761901362851,133.47065511668103,689.3118445136719
710.0855032044583,125.69837814136328,685.4104102828184
705.9311793527862,121.79082561323186,677.5127082133043
717.0012185608747,129.30205523802726,661.9548979519001
705.2500089225169,140.9298792146146,653.8899624234576
713.8288814223004,129.50293933198392,681.5293703762244
717.0012185608747,129.30205523802726,661.9548979519001
717.1378605334137,129.33672558926853,665.8808053718651
718.4736887724147,125.80952720857788,705.1592541795619
706.585837161518,137.40268083392394,693.1684112311544
713.4475075586465,133.26977102272437,669.7373720893476
710.0029061912071,133.40131441419854,681.4590099575289
710.5759867029007,118.0974134898258,701.1425920166419
702.569174998598,133.52979865703375,689.1966165816054
702.3509557290207,121.88973808589071,685.3074189453076
725.1987171970042,121.64194704613708,677.8012879015771
698.4434032008893,114.18170323199054,685.2747880264923
702.0511591624052,117.95261378758293,677.4668209837203
710.5484543651503,114.22962989400051,701.1548286111976
709.7306419623419,114.02364721897898,677.5953052265555
709.7031096245915,129.46419011589074,673.6184119959416
709.4848903550143,117.8241295447477,669.7302340758567
717.6558763696064,106.29521804081925,685.5898803363025
713.1752433297814,113.89108411129183,665.8736673583742
713.3934625993587,125.53216439864786,669.7628649946721
713.610662152723,137.17222496979093,673.6510429147569
709.4298256795136,148.7052153385713,661.775427898416
714.0195683541272,137.2752163073017,685.4308046070779
706.313572932653,137.3343598476544,685.3145569587984
713.8023688007628,125.63413601994567,681.5416069707801
713.9379910570889,125.66880637118692,685.4685341069581
713.9114784355514,121.80000305914865,685.4807707015138
713.8288814223004,148.81228554093397,677.5392208348417
718.0923149087611,129.57635889931834,693.3672558926852
712.9570240602042,121.56036974909884,657.9953398969068
721.4002743036614,129.40912544038994,677.7186908883258
720.9363034267564,140.8788934039657,661.9742725599466
725.4169364665814,133.28302733349312,681.6904855378749
713.3934625993587,125.53216439864786,669.7628649946721
705.5773378268829,110.11609469084756,669.6976031570415
713.3108655861075,133.23510067148314,665.8104449531696
714.0756527458409,106.39311079726514,693.3845910683058
721.2095873718346,121.63786818128517,673.8172566574723
716.701421994259,106.05558473076943,658.1034298154824
725.3078268317928,117.80781408534007,681.7404516323109
705.4957605298446,117.82005067989579,665.745183115539
713.5025722341474,121.69701172163789,673.7020287254059
718.0372502332602,121.83875227524182,693.3917290817966
706.0943339468627,145.00364548546142,677.4362294973309
706.6949467963067,133.56854787312693,697.1075749618882
714.3744295962435,129.64060102073594,697.2360592047235
703.0045938215395,137.5005735903698,700.9631219631577
709.4583777334769,113.95532623270945,669.7424706704124
714.0195683541272,137.2752163073017,685.4308046070779
706.2319956356147,125.72794991153962,685.3533061748916
721.6450061947761,144.91900903978424,681.594632213855
702.8689715652134,137.46692295534154,697.0372145431927
721.9723350991419,133.41559044118023,693.4121234060561
714.5661362442834,118.1025120708907,705.1266232607467
721.2636323311223,110.06612859641163,677.7819132935305
717.4376571000291,113.96450367862626,677.7115528748351
710.330235095573,121.89789581559454,693.2765011497302
710.0855032044583,106.38903193241322,689.4005598242011
704.8135703833624,98.33939214716546,650.1027364084576
709.5674873682655,110.12119327191243,673.6816344011462
722.1365094094315,137.31804438824676,697.3257942314655
710.1120158259957,129.56718145340153,685.3981736882627
702.2693784319825,129.592674358726,681.3560186200182
710.1935931230339,141.1735913895163,685.3604441883825
716.9736862231242,144.74361785115204,657.9769850050732
708.7211229114938,125.35677321001567,646.1452177858903
709.9753738534567,148.8428770273233,677.482116726915
713.6657268282238,125.60048538491739,677.6156995508151
705.7955570964601,121.75717497820358,673.5857810771263
709.3492680986882,117.79047890971944,665.8033069396788
713.9114784355514,121.80000305914865,685.4807707015138
721.5358965599875,129.4437957916312,681.6445983082909
705.7680247587098,117.88837166616533,673.599037387895
709.9488612319193,125.66472750633501,681.4845028628533
710.5209220273999,129.67017279091232,697.1779353805837
717.4641697215666,137.14265319961456,673.7091667388967
702.2958910535199,133.46147767076425,681.3427623092493
709.7571545838795,137.20179673996728,673.5929190906172
721.5634288977379,133.31259910366947,681.6323617137351
714.1562103266662,137.30886694232998,689.3567120270429
702.3784880667711,125.757521681716,685.2951823507518
717.491702059317,121.70211030270276,677.6860599695106
717.9016279769342,121.80408192400057,689.4658216618316
702.7873942681753,125.86051301922676,697.0749440430728
714.0756527458409,106.39311079726514,693.3845910683058
705.8220697179976,125.62597829024185,673.5735444825706
701.4780786507116,133.25651471195567,657.7842586408203
725.5800910606579,137.18548128055963,685.6041563632842
706.1769309601139,117.9903432874631,685.3777793640031
713.9930557325897,133.40641299526345,685.4430412016336
722.0273997746427,141.1521773490438,693.3866305007317
717.8190309636828,129.5080379130488,685.5134016203292
698.3608061876381,141.19398571377587,677.3332381598202
713.9655233948394,129.53760968322516,685.4562975124024
705.7680247587098,117.88837166616533,673.599037387895
716.9186215476234,137.0060112270755,658.0024779103976
726.1807039101019,125.75038366822515,705.2744821116285
717.0827958579129,121.599118965192,665.9062982771895
718.3095144621252,141.21641947046137,697.25543381277
713.2292882890692,140.9380369443184,661.8590446278802
713.5015525179343,141.00635793058794,669.7118791840232
702.1602687971938,133.426807319523,677.4168548892843
717.3285474652405,137.10798284837333,669.7822396027186
717.955672936222,129.54168854807708,689.4403287565071
694.3981889840059,125.74936395201216,677.3261001463293
714.211275002167,125.73712735745644,693.3213686631011
713.2568206268196,106.18814783845657,669.8260873998767
701.8604722305784,110.18033681226517,673.5664064690798
716.7564866697599,113.79319135484597,658.078956626371
709.2401584638995,121.62461187051646,661.864143208945
721.1820550340841,137.07841107819695,669.8403634268584
702.3509557290207,141.19908429484076,681.3182891201379
728.9431151310591,144.75687416192076,669.9300984536004
721.6725385325265,129.4774464266595,685.5715254444689
710.330235095573,141.2072420245446,689.2863516083474
717.9006082607211,141.11342813295062,685.475672120449
722.2445993280071,152.79325763639983,697.2758281370295
699.2612156036976,133.69601239974918,704.8451815859647
702.1602687971938,133.426807319523,677.4168548892843
698.1701192558112,133.42272845467107,673.4328236451796
702.7323295926744,137.43225260410028,693.1102874070147
710.0304385289575,137.2701177262368,681.4467733629732
710.1670805014966,137.30478807747807,685.3726807829382
717.4101247622787,129.40504657553805,673.7336399280082
709.6755772868411,125.59640652006549,673.6306485904973
710.1120158259957,129.56718145340153,685.3981736882627
709.4573580172639,133.2646724416595,665.75232112903
709.9763935696697,129.53353081837326,681.4712465520846
710.0304385289575,137.2701177262368,681.4467733629732
697.9794323239843,106.34110527040326,673.5205192394958
706.2860405949026,133.46555653561617,685.3278132695672
710.0855032044583,125.69837814136328,685.4104102828184
698.4699158224266,118.05050654402882,685.2625514319366
698.4974481601771,121.91930985606706,685.2503148373809
709.8937965564185,137.23646709120854,677.5198462267952
701.9410298114035,141.09609295733,669.5385274278169
710.3027027578227,137.33843871250633,689.2996079191162
717.4376571000291,133.2738498875763,673.7214033334524
701.7503428795767,133.3248356982252,665.6370931969633
713.6381944904734,121.73168207287914,677.6279361453709
710.1946128392469,121.86424518056626,689.3495740135521
705.9587116905366,125.65962892527011,677.4994519025356
710.0304385289575,117.96077151728676,685.4359031881428
709.8122192593802,125.63005715509375,677.5575757266753
717.9281405984715,125.67288523603882,689.4525653510628
717.8730759229708,137.24564453712534,685.4889284312177
698.2516965528494,125.71979218183581,677.3842239704692
710.2486577985347,129.6018518046428,689.3251008244406
705.6313827861707,137.16304752387413,665.6819607103344
694.5623632942953,129.6518178990787,681.2407906879516
706.2319956356147,125.72794991153962,685.3533061748916
717.4641697215666,137.14265319961456,673.7091667388967
702.9780812000022,133.63278999454454,700.9763782739265
709.8397515971305,110.18951425818196,681.5344689572893
705.8771343934984,133.36358491431835,673.5480515772462
710.6575639999389,129.70382342594058,701.1038428005487
714.0195683541272,137.2752163073017,685.4308046070779
710.0304385289575,137.2701177262368,681.4467733629732
706.3676178919408,125.76262026278087,689.2792135948566
713.5025722341474,121.69701172163789,673.7020287254059
706.585837161518,137.40268083392394,693.1684112311544
702.2958910535199,133.46147767076425,681.3427623092493
698.0610096210225,137.2568614154681,669.4936599144459
702.3509557290207,121.88973808589071,685.3074189453076
717.9832052739723,133.41049186011534,689.4280921619514
706.8581013903831,137.47100182019346,701.0212457872975
702.432533026059,114.18578209684246,689.2598389868101
706.2860405949026,133.46555653561617,685.3278132695672
714.0471006918775,141.14401961933996,685.4175482963093
721.5358965599875,129.4437957916312,681.6445983082909
709.8937965564185,137.23646709120854,677.5198462267952
706.6949467963067,152.87789408207698,693.1174254205056
714.1562103266662,156.61821315128003,685.3675822018733
699.5875247918506,141.50194001009518,712.6725232367833
695.1619564275263,137.52606649569427,696.9209668949132
714.0471006918775,141.14401961933996,685.4175482963093
709.866264218668,133.36766377917027,677.5320828213509
713.9104587193385,141.1093492680987,681.4916408763443
709.6755772868411,125.59640652006549,673.6306485904973
690.5181687936248,121.91013241015027,677.2812326329583
706.5042598644798,125.79627089780917,693.2061407310346
717.6823889911439,129.47336756180758,681.5874942003642
706.0127566498244,133.39723554934662,677.4749787134242
720.8547261297182,129.27248346785092,662.0120020598268
702.2143137564817,121.85506773464947,681.3815115253426
725.3353591695432,140.98596360632837,677.7380654963724
714.0746330296279,145.01282293137822,685.4053117017535
714.5110715687825,129.67425165576424,701.1619666246885
702.7873942681753,125.86051301922676,697.0749440430728
706.776524093345,125.86459188407868,701.0589752871776
718.3105341783382,121.90707326151134,701.2455833541527
710.4393447303617,118.06376285479753,697.2156648804638
698.7421800512918,137.4281737392484,689.12625616291
718.227937165087,148.91935574329665,693.3040334874805
713.1477109920311,148.64199293336668,657.9066245863777
702.3509557290207,141.19908429484076,681.3182891201379
702.5416426608475,148.97034155394556,685.2197233509916
714.3744295962435,129.64060102073594,697.2360592047235
717.628344031856,121.73576093773106,681.6129871056885
706.1769309601139,117.9903432874631,685.3777793640031
709.8397515971305,110.18951425818196,681.5344689572893
714.2388073399173,129.60593066949468,693.3091320685454
705.658915123921,121.72250462696232,669.6598736571613
698.0069646617347,129.51925479139155,669.5181331035574
698.824777064543,129.72523746641312,693.0776564881994
721.6450061947761,144.91900903978424,681.594632213855
710.5484543651503,133.53897610295056,697.164679069815
718.1738922057992,141.1827688354331,693.3285066765919
698.3067612283502,133.45637908969934,677.3587310651446
709.7846869216298,141.07060005200555,673.5806824960614
702.0776717839426,141.13076330857123,673.464434847782
713.610662152723,137.17222496979093,673.6510429147569
713.9114784355514,121.80000305914865,685.4807707015138
702.3509557290207,121.88973808589071,685.3074189453076
694.5072986187945,121.91421127500219,681.2652638770631
709.6755772868411,125.59640652006549,673.6306485904973
702.7873942681753,125.86051301922676,697.0749440430728
713.5025722341474,121.69701172163789,673.7020287254059
706.7489917555945,141.30615449720344,697.0820820565638
702.1602687971938,133.426807319523,677.4168548892843
718.2554695028375,133.47881284638487,697.2809267180944
705.7680247587098,137.1977178751154,669.6088878465124
709.8397515971305,129.498860467132,677.5453391321196
709.5124226927646,141.00227906573602,665.7278479399183
690.5171490774118,141.21947861910033,673.2910830915757
699.4784151570618,145.3370926871052,708.7333595060496
706.0943339468627,164.31299169441147,673.4470996721614
713.8564137600507,133.3717426440222,681.5171337816686
694.1799697144286,133.41864958981915,669.4477726848619
717.356079802991,121.66743995146152,673.7591328333325
706.0127566498244,133.39723554934662,677.4749787134242
701.9695818653669,125.6555500604182,673.5154206584309
710.3852997710737,129.63550243967106,693.2510082444056
710.330235095573,121.89789581559454,693.2765011497302
702.1327364594434,129.55800400748473,677.4290914838401
702.8689715652134,137.46692295534154,697.0372145431927
710.3852997710737,129.63550243967106,693.2510082444056
701.777875217327,137.19363901026347,665.6248566024076
702.7323295926744,137.43225260410028,693.1102874070147
713.9104587193385,141.1093492680987,681.4916408763443
737.1956784426895,144.8333528778941,685.7520152141659
702.0776717839426,141.13076330857123,673.464434847782
698.2516965528494,125.71979218183581,677.3842239704692
705.8771343934984,133.36358491431835,673.5480515772462
713.5015525179343,141.00635793058794,669.7118791840232
710.0569511504949,141.13892103827507,681.4335170522045
698.1701192558112,133.42272845467107,673.4328236451796
709.866264218668,152.67700998812032,673.5429529961813
717.7914986259325,144.9485808099606,681.5365083897152
714.1837426644166,141.17767025436822,689.3444754324872
725.2802944940423,133.24835698225186,677.7635584016969
712.9570240602042,121.56036974909884,657.9953398969068
710.3852997710737,129.63550243967106,693.2510082444056
721.7000708702769,133.34624973869774,685.5592888499132
714.3744295962435,129.64060102073594,697.2360592047235
698.0885419587729,121.8163185185563,673.4705531450599
706.2044632978643,121.85914659950137,685.3655427694473
713.4475075586465,133.26977102272437,669.7373720893476
710.0855032044583,125.69837814136328,685.4104102828184
710.2761901362851,133.47065511668103,689.3118445136719
709.3757807202256,121.65826250554473,665.7910703451231
710.0855032044583,125.69837814136328,685.4104102828184
714.211275002167,125.73712735745644,693.3213686631011
714.7833357976475,149.05191885098378,705.0256713556619
706.2585082571521,129.5967532235779,685.3400498641229
698.9328669831186,145.1994309983532,693.0266706775506
706.2044632978643,141.16849280845142,681.3753932280647
709.9753738534567,148.8428770273233,677.482116726915
698.0069646617347,129.51925479139155,669.5181331035574
702.7863745519622,145.16985922817682,693.0847945016903
713.5566171934352,148.74396455466444,669.6863862786987
699.1786185904464,141.39996838879742,700.8927615444622
713.5841495311855,133.30342165775266,673.6632795093126
710.0579708667078,121.82957482932501,685.4236665935871
729.0257121443103,117.74357196392246,677.8716483202725
694.3992087002188,106.44001774306211,681.316249687712
717.165392871164,113.89618269235673,669.857698602479
706.3411052704033,121.89381695074263,689.2924699056254
709.6215323275534,117.85879989598895,673.6561414958218
713.9655233948394,129.53760968322516,685.4562975124024
717.4641697215666,137.14265319961456,673.7091667388967
705.7129600832089,129.46011125103885,669.6343807518368
709.7031096245915,129.46419011589074,673.6184119959416
710.466877068112,141.24191237578583,693.2132787445255
714.3744295962435,148.94994722968602,693.2459096633407
705.9036470150359,137.23136851014365,673.5358149826903
706.0678213253252,141.13484217342315,677.4494858080997
708.8027002085321,136.96216342991747,646.10748828601
706.6133694992684,121.96213793701214,697.1453044617684
709.5664676520526,129.43053948086248,669.6914848597636
710.0029061912071,133.40131441419854,681.4590099575289
718.0923149087611,129.57635889931834,693.3672558926852
721.4267869251987,133.2779287524282,677.7054345775572
710.3027027578227,137.33843871250633,689.2996079191162
713.9655233948394,129.53760968322516,685.4562975124024
710.7391412969771,122.00088715310531,705.0562628420512
702.4600653638093,118.05458540888073,689.2465826760413
709.7846869216298,121.76125384305548,677.5698123212311
710.330235095573,141.2072420245446,689.2863516083474
709.3217357609378,133.23102180663125,661.8264137090649
721.4818516006995,121.70618916755468,681.6700912136154
702.0511591624052,117.95261378758293,677.4668209837203
710.0039259074201,114.09196820524849,685.4491594989115
705.7955570964601,121.75717497820358,673.5857810771263
710.2761901362851,114.160289191518,693.3019940550545
710.3577674333234,125.76669912763279,693.2642645551745
702.5416426608475,129.66099534499548,689.2088531761611
705.9862440282869,129.52843223730838,677.4872153079799
713.6381944904734,121.73168207287914,677.6279361453709
717.7099213288943,133.34217087384582,681.5742378895955
709.3217357609378,113.92167559768117,665.8155435342345
717.5192343970674,125.57091361474103,677.6728036587418
710.1670805014966,117.995441868528,689.3628303243208
714.7558034598972,145.18311553894551,705.0379079502176
702.1602687971938,133.426807319523,677.4168548892843
717.3550600867779,140.97678616041156,669.7700030081629
709.2401584638995,121.62461187051646,661.864143208945
717.2734827897397,129.37139594050976,669.8077325080432
713.611681868936,117.86287876084087,677.6411924561395
713.4475075586465,113.96042481377434,673.7265019145173
710.1395481637461,114.12663855648974,689.3750669188765
698.2792288905998,129.58859549387407,677.3719873759134
718.3921114753765,133.51348319762613,701.2068341380595
713.2843529645701,129.3662973594449,665.8237012639382
701.3965013536733,121.65010477584089,657.8219881407006
710.2486577985347,129.6018518046428,689.3251008244406
730.0617438166959,129.58961521008703,705.3203693412124
721.372741965911,125.54134184456466,677.7309274828816
716.8105316290478,121.53079797892248,658.0534637210465
717.5732793563552,133.30852023881755,677.6483304696304
702.8139068897126,129.72931633126504,697.0616877323042
706.8050761473083,110.42404898716687,705.0358685177915
713.8299011385133,110.19359312303386,685.519519917607
694.3166116869676,114.14295401589737,677.3638296462095
716.9736862231242,125.43427164220198,661.9671345464558
701.9960944869043,129.52435337245646,673.5031840638751
717.1378605334137,129.33672558926853,665.8808053718651
728.9155827933088,140.8880708498825,669.9433547643691
717.7099213288943,133.34217087384582,681.5742378895955
729.7884598716179,129.52129422381753,697.4665150688564
706.0413087037878,117.95669265243484,681.4518719440381
722.2456190442201,114.1745652184997,705.2551075035818
722.4903509353347,129.683429101681,709.1310488291109
717.6558763696064,125.6045642497693,681.5997307949199
710.0855032044583,125.69837814136328,685.4104102828184
714.8384004731483,137.48017926611027,708.9903279917199
721.6725385325265,148.7878123518225,681.5813759030863
717.6823889911439,129.47336756180758,681.5874942003642
713.4475075586465,133.26977102272437,669.7373720893476
710.0579708667078,121.82957482932501,685.4236665935871
717.5192343970674,125.57091361474103,677.6728036587418
717.5192343970674,106.26156740579098,681.6629532001244
718.0382699494731,102.52940606629177,697.3818786231793
718.4747084886277,106.50018099962782,709.1483840047316
706.1504183385765,114.12255969163782,685.3910356747718
717.3836121407413,106.22689705454974,677.7360260639465
717.9016279769342,121.80408192400057,689.4658216618316
713.0661336949928,117.72623678830183,661.9345036276405
713.7197717875116,133.33809200899393,677.5902066454906
729.1613344006364,117.77824231516371,681.7985754564505
721.2636323311223,129.37547480536168,673.7917637521479
710.0304385289575,137.2701177262368,681.4467733629732
698.7431997675048,118.11882753029833,693.1153859880795
713.2292882890692,121.62869073536837,665.8481744530499
713.7748364630124,121.7653327079074,681.5548632815488
713.0936660327432,102.28569389139004,665.9113968582544
725.1987171970042,121.64194704613708,677.8012879015771
729.1613344006364,117.77824231516371,681.7985754564505
709.7846869216298,121.76125384305548,677.5698123212311
717.6008116941056,117.86695762569279,681.6252237002443
713.8839460978011,117.93119974711038,685.4940270122826
725.5811107768709,117.87613507160958,689.5943059046667
710.466877068112,121.9325661668358,697.2034282859081
713.0386013572423,113.85743347626357,661.9467402221962
717.3010151274901,113.929833327385,673.784625738657
713.5566171934352,129.4346183457144,673.6765358200813
706.1769309601139,117.9903432874631,685.3777793640031
705.7680247587098,137.1977178751154,669.6088878465124
698.4974481601771,121.91930985606706,685.2503148373809
702.3234233912702,118.02093477385245,685.3206752560764
701.8880045683287,114.04914012430343,673.553150158311
717.6834087073569,110.16402135285752,685.5766240255338
721.8642451805663,117.9403771930272,693.4620895004921
713.0661336949928,117.72623678830183,661.9345036276405
729.3255087109259,121.68069626223023,685.7122462818598
705.850621771961,110.18543539333004,677.5504377131845
705.7404924209594,114.01956835412706,673.6112739824508
709.5939999898029,113.98999658395071,673.6693978065905
717.6008116941056,117.86695762569279,681.6252237002443
716.9471736015868,102.25612212121368,665.9695206823941
721.2095873718346,121.63786818128517,673.8172566574723
717.5742990725682,113.99815431365451,681.6374602948001
721.6184935732387,121.74085951879593,685.5970183497934
705.7404924209594,114.01956835412706,673.6112739824508
721.0178807237947,133.17595713113042,665.9266926014491
717.6558763696064,125.6045642497693,681.5997307949199
717.7914986259325,125.63923460101056,685.5266579310978
721.9182901398542,125.67798381710372,693.4376163113807
725.7442653709473,141.08895494383916,689.5178271886936
704.9502123559014,117.68340870735676,650.039514003253
725.5811107768709,117.87613507160958,689.5943059046667
702.3234233912702,118.02093477385245,685.3206752560764
706.0953536630757,106.38495306756131,685.4165285800963
717.3836121407413,106.22689705454974,677.7360260639465
721.3186970066231,117.80373522048815,677.756420388206
710.1946128392469,121.86424518056626,689.3495740135521
705.4406958543437,129.39179026476933,661.7805264794808
698.7431997675048,98.80927737810568,697.1055355294623
717.356079802991,102.35809374251147,677.7492823747152
709.7306419623419,114.02364721897898,677.5953052265555
713.5841495311855,113.9940754488026,677.6534290506953
713.1211983704936,106.1544972034283,665.8991602636987
713.7207915037245,114.02874580004385,681.5803561868734
709.7857066378427,102.45190763410544,681.5599618626137
713.0120887357049,109.9886301642253,661.959996532965
721.1820550340841,117.7690648692469,673.8294932520281
729.6793502368291,133.35542718461454,693.5273513381227
713.9379910570889,125.66880637118692,685.4685341069581
721.8632254643534,137.24972340197726,689.4729596753225
714.4570266094946,121.93664503168769,701.1874595300128
721.7541158295647,121.7745101538242,689.5229257697584
721.6725385325265,129.4774464266595,685.5715254444689
717.9016279769342,121.80408192400057,689.4658216618316
706.4226825674416,133.5002268868574,689.2537206895322
721.7276032080273,117.90570684178596,689.536182080527
709.266671085437,125.4934151825547,661.8519066143892
714.5926488658207,121.97131538292894,705.1143866661909
710.0304385289575,117.96077151728676,685.4359031881428
706.0413087037878,98.64724447186349,685.4410017692077
713.5566171934352,110.12527213676435,677.665665645251
709.6490646653037,102.41825699907717,677.6330347264358
706.313572932653,98.71556545813301,693.2948560415637
720.9638357645068,106.12900429810385,669.9413153319432
718.1463598680488,118.0046193144448,697.3308928125304
709.1310488291109,106.1493986223634,661.9151290195939
717.4651894377795,117.83330699066452,677.6982965640663
721.8907578021037,121.80918050506544,693.4498529059364
706.5042598644798,125.79627089780917,693.2061407310346
713.3659302616082,140.97270729555967,665.7849520478452
729.0246924280973,137.05291817287252,673.8825184951029
706.2044632978643,141.16849280845142,681.3753932280647
721.3176772904102,137.11308142943818,673.7662708468233
702.0511591624052,117.95261378758293,677.4668209837203
713.611681868936,117.86287876084087,677.6411924561395
725.2813142102555,113.93901077330179,681.7537079430795
718.2554695028375,114.16946663743482,701.2700565432641
732.5243584710375,106.03926927136179,670.1146670881494
725.7442653709473,121.7796087348891,693.507976730076
714.1847623806295,102.55897783646812,697.3237547990394
709.8122192593802,125.63005715509375,677.5575757266753
713.611681868936,117.86287876084087,677.6411924561395
714.6477135413215,110.39957579805541,709.0780235860361
705.7680247587098,117.88837166616533,673.599037387895
714.2388073399173,110.29658446054464,697.299281609928
720.8271937919678,125.40368015581265,662.0252583705956
710.1946128392469,121.86424518056626,689.3495740135521
709.5399550305151,125.56173616882424,669.7047411705323
705.9311793527862,121.79082561323186,677.5127082133043
721.5909612354883,117.87205620675766,685.6092549443491
713.8574334762636,114.06239643507215,685.5062636068383
706.1504183385765,114.12255969163782,685.3910356747718
714.1837426644166,121.86832404541818,693.3346249738698
709.7857066378427,102.45190763410544,681.5599618626137
713.3383979238579,117.79455777457136,669.7873381837835
713.9930557325897,114.09706678631339,689.4331907430163
717.4376571000291,113.96450367862626,677.7115528748351
710.1130355422086,110.2578352444515,689.3883232296453
717.8465633014333,114.06749501613702,689.491314567156
725.0630949406781,121.6082964111088,673.8753804816121
706.1504183385765,114.12255969163782,685.3910356747718
717.3285474652405,137.10798284837333,669.7822396027186
698.0885419587729,121.8163185185563,673.4705531450599
713.6657268282238,125.60048538491739,677.6156995508151
713.6932591659742,129.46928869695566,677.6024432400463
710.4128321088242,114.19495954275925,697.2279014750195
717.5467667348179,110.13037071782924,681.6507166055687
725.1722045754667,117.77314373409881,677.8145442123458
717.0012185608747,129.30205523802726,661.9548979519001
709.266671085437,125.4934151825547,661.8519066143892
710.1946128392469,121.86424518056626,689.3495740135521
722.0549321123932,125.71163445213199,697.3635237313456
717.3825924245283,125.53624326349978,673.7468962387768
721.6184935732387,121.74085951879593,685.5970183497934
706.1769309601139,117.9903432874631,685.3777793640031
717.8730759229708,137.24564453712534,685.4889284312177
702.9780812000022,114.3224240693815,704.9655080990962
710.1670805014966,117.995441868528,689.3628303243208
713.8574334762636,114.06239643507215,685.5062636068383
714.1572300428792,117.99952073337992,693.3468615684255
713.8023688007628,125.63413601994567,681.5416069707801
717.5742990725682,113.99815431365451,681.6374602948001
709.4848903550143,117.8241295447477,669.7302340758567
713.475039896397,117.82820840959963,673.7142653199616
709.4308453957265,129.39586912962125,665.7655774397986
709.8397515971305,129.498860467132,677.5453391321196
714.2388073399173,110.29658446054464,697.299281609928
718.1738922057992,121.87240291027008,697.3186562179746
725.6892006954465,133.35134831976262,689.5433200940179
697.8427903514453,125.61680084432504,665.604462278148
713.7748364630124,121.7653327079074,681.5548632815488
702.2693784319825,129.592674358726,681.3560186200182
702.2958910535199,133.46147767076425,681.3427623092493
725.7707779924848,144.95775825587742,689.5055905941377
717.1643731549511,133.2055289013068,665.8685687773093
721.3452096281605,140.98188474147648,673.7540342522676
725.0345428867147,137.0488393080206,669.8974675347852
717.5467667348179,129.4397169267793,677.6605670641861
725.1987171970042,121.64194704613708,677.8012879015771
713.5290848556847,125.56581503367613,673.6887724146371
721.50938393845,125.57499247959295,681.6578546190595
696.8893556923109,106.06782132532518,642.1081612987106
705.522273151382,121.68885399193405,665.7329465209832
705.1959639632291,113.88292638158802,657.9045851539518
717.4641697215666,137.14265319961456,673.7091667388967
718.2004048273367,145.0505524312584,693.3162700820362
721.7541158295647,141.08385636277424,685.5337959445886
709.4033130579761,125.527065817583,665.7778140343543
717.7099213288943,152.6515170827959,677.5851080644258
709.9213288941688,121.79592419429675,681.4967394574091
717.491702059317,121.70211030270276,677.6860599695106
706.2860405949026,133.46555653561617,685.3278132695672
713.6381944904734,121.73168207287914,677.6279361453709
718.1463598680488,137.31396552339484,693.3417629873607
713.6381944904734,121.73168207287914,677.6279361453709
725.3628915072936,125.54542070941658,681.7159784431993
710.4118123926112,133.5043057517093,693.2387716498499
717.3010151274901,133.23917953633506,669.7944761972743
710.4393447303617,137.37310906374756,693.2255153390812
718.0097178955098,137.2792951721536,689.4148358511826
710.7116089592267,137.4414300500171,701.0793696114372
705.9036470150359,137.23136851014365,673.5358149826903
725.1987171970042,140.95129325508714,673.8121580764074
697.9518999862339,121.78266788352803,669.5436260088818
706.2585082571521,129.5967532235779,685.3400498641229
702.7323295926744,137.43225260410028,693.1102874070147
710.4128321088242,114.19495954275925,697.2279014750195
713.8839460978011,117.93119974711038,685.4940270122826
717.6558763696064,125.6045642497693,681.5997307949199
729.2163990761371,125.51584893924023,681.7730825511261
705.8496020557479,129.4947816022801,673.5602881718019
729.0246924280973,137.05291817287252,673.8825184951029
698.0610096210225,137.2568614154681,669.4936599144459
713.5290848556847,144.87516124262618,669.6996425894674
718.0097178955098,137.2792951721536,689.4148358511826
702.2969107697329,114.1521314618142,685.3329118506321
705.7680247587098,117.88837166616533,673.599037387895
710.0029061912071,133.40131441419854,681.4590099575289
706.122886000826,129.56310258854964,681.4141424441578
702.7323295926744,118.12290639515025,697.1004369483974
713.3934625993587,125.53216439864786,669.7628649946721
714.3203846369556,141.21234060560948,693.2714025686653
709.9213288941688,121.79592419429675,681.4967394574091
717.9006082607211,141.11342813295062,685.475672120449
713.6657268282238,125.60048538491739,677.6156995508151
706.2044632978643,121.85914659950137,685.3655427694473
714.2388073399173,129.60593066949468,693.3091320685454
717.9016279769342,121.80408192400057,689.4658216618316
717.7914986259325,125.63923460101056,685.5266579310978
717.2194378304519,121.63378931643325,669.8332254133675
714.1296977051287,133.44006363029172,689.3699683378117
702.569174998598,114.22045244808372,693.1857464067751
728.8615378340209,133.150464225806,669.9688476696936
698.0069646617347,129.51925479139155,669.5181331035574
705.658915123921,121.72250462696232,669.6598736571613
702.5416426608475,129.66099534499548,689.2088531761611
701.9145171898662,117.91794343634167,673.5409135637552
705.7139797994218,110.15076504208879,673.6235105770065
699.424370197774,118.29013985407862,712.7479822365436
717.3825924245283,125.53624326349978,673.7468962387768
706.1769309601139,117.9903432874631,685.3777793640031
710.466877068112,121.9325661668358,697.2034282859081
713.2292882890692,140.9380369443184,661.8590446278802
702.5956876201354,137.39860196907202,689.1833602708367
702.5416426608475,129.66099534499548,689.2088531761611
721.5358965599875,148.75314200058125,677.6554684831212
714.2653199614548,133.47473398153295,693.2958757577767
717.2194378304519,121.63378931643325,669.8332254133675
706.4226825674416,133.5002268868574,689.2537206895322
702.5416426608475,148.97034155394556,685.2197233509916
710.6575639999389,129.70382342594058,701.1038428005487
702.432533026059,133.49512830579252,685.2696894454274
686.6646612247812,121.93970418032664,677.2231088088186
709.7581743000924,117.89245053101725,677.5830686319998
717.8190309636828,129.5080379130488,685.5134016203292
717.764986004395,121.7704312889723,685.5388945256535
710.1946128392469,121.86424518056626,689.3495740135521
694.6439405913335,102.63953541729339,689.1823405546237
709.2942034231874,110.05287228564292,665.8287998450032
702.8965039029639,122.02638005842974,701.0141077738066
701.6147206232506,113.9808191380339,665.700315602168
710.7942059724779,129.73849377718182,705.0307699367268
702.5956876201354,137.39860196907202,689.1833602708367
713.6932591659742,129.46928869695566,677.6024432400463
729.5427082642901,152.63112275853632,685.611294376775
702.8954841867509,141.3357262673798,697.023958232424
709.6480449490907,141.03694941697728,669.6537553598833
721.5358965599875,148.75314200058125,677.6554684831212
693.6619538782357,137.1497912131054,653.7288472618071
725.3353591695432,140.98596360632837,677.7380654963724
706.4226825674416,114.19088067790736,693.2438702309148
718.0647825710106,106.39820937833002,697.3696420286235
717.4376571000291,133.2738498875763,673.7214033334524
721.50938393845,125.57499247959295,681.6578546190595
701.9971142031173,110.21500716350641,677.4923138890448
714.0746330296279,145.01282293137822,685.4053117017535
710.2486577985347,129.6018518046428,689.3251008244406
732.7690903621523,140.85849907970615,670.0004588722959
717.8190309636828,129.5080379130488,685.5134016203292
706.7500114718075,121.99680828825339,701.0722315979464
706.1504183385765,114.12255969163782,685.3910356747718
702.8689715652134,118.1575767463915,701.0263443683624
706.0127566498244,133.39723554934662,677.4749787134242
706.449195188979,137.36903019889564,689.2414840949765
714.0746330296279,125.70245700621518,689.3954612431361
710.0304385289575,137.2701177262368,681.4467733629732
710.1670805014966,137.30478807747807,685.3726807829382
706.5317922022301,129.6650742098474,693.192884420266
718.4461564346643,121.94174361275259,705.1714907741177
701.9695818653669,125.6555500604182,673.5154206584309
717.7914986259325,125.63923460101056,685.5266579310978
702.0786915001556,121.8203973834082,677.4545843891646
718.6643757042416,133.58180418389563,709.0606884104154
702.8689715652134,137.46692295534154,697.0372145431927
706.8581013903831,137.47100182019346,701.0212457872975
701.8054075550775,141.06142260608874,665.611600291639
713.8839460978011,137.24054595606043,681.5038774709
721.372741965911,125.54134184456466,677.7309274828816
713.611681868936,117.86287876084087,677.6411924561395
709.6215323275534,117.85879989598895,673.6561414958218
713.7748364630124,121.7653327079074,681.5548632815488
717.9281405984715,144.98223144498888,685.4634355258933
702.0786915001556,121.8203973834082,677.4545843891646
701.4505463129611,129.38771139991744,657.796495235376
702.1878011349443,117.98626442261119,681.3937481198983
706.0413087037878,117.95669265243484,681.4518719440381
694.5072986187945,121.91421127500219,681.2652638770631
713.2568206268196,125.49749404740662,665.835937858494
710.2486577985347,129.6018518046428,689.3251008244406
702.2143137564817,121.85506773464947,681.3815115253426
721.4002743036614,129.40912544038994,677.7186908883258
706.313572932653,118.02501363870437,689.304706500181
720.9638357645068,125.4383505070539,665.9511657905606
702.0511591624052,137.26195999653297,673.4776911585507
709.8937965564185,137.23646709120854,677.5198462267952
698.1160742965234,125.68512183059457,673.4572968342911
702.6507522956362,125.82686238419849,693.1480169068949
706.450214905192,118.05968398994561,693.2316336363591
713.8288814223004,129.50293933198392,681.5293703762244
705.9862440282869,129.52843223730838,677.4872153079799
706.450214905192,118.05968398994561,693.2316336363591
725.5260461013701,129.44787465648312,685.6296492686087
709.8397515971305,129.498860467132,677.5453391321196
705.3591185573056,137.0947265376046,657.8291261541914
706.8040564310953,129.73339519611696,701.046738692622
718.3921114753765,133.51348319762613,701.2068341380595
710.330235095573,141.2072420245446,689.2863516083474
710.0029061912071,133.40131441419854,681.4590099575289
702.1867814187312,137.29561063156126,677.4035985785157
706.8856337281335,141.3398051322317,701.0090091927418
706.0943339468627,145.00364548546142,677.4362294973309
710.3852997710737,129.63550243967106,693.2510082444056
709.8397515971305,129.498860467132,677.5453391321196
713.611681868936,117.86287876084087,677.6411924561395
698.4158708631389,129.62224612890236,681.2978947958784
717.6558763696064,125.6045642497693,681.5997307949199
714.0746330296279,125.70245700621518,689.3954612431361
725.7442653709473,121.7796087348891,693.507976730076
690.8454976979907,110.40671381154625,689.0987238251595
721.9182901398542,125.67798381710372,693.4376163113807
701.9145171898662,117.91794343634167,673.5409135637552
706.0413087037878,117.95669265243484,681.4518719440381
706.1493986223635,133.43190590058788,681.4008861333892
706.1493986223635,133.43190590058788,681.4008861333892
702.105204121693,144.99854690439653,673.4521982532262
713.8013490845499,144.94348222889573,677.5524771456105
701.9695818653669,125.6555500604182,673.5154206584309
714.2653199614548,152.784080190483,689.306745932607
698.4699158224266,118.05050654402882,685.2625514319366
709.7846869216298,121.76125384305548,677.5698123212311
713.9930557325897,133.40641299526345,685.4430412016336
720.7996614542174,121.5348768437744,662.0374949651513
709.3757807202256,121.65826250554473,665.7910703451231
702.3784880667711,125.757521681716,685.2951823507518
698.1160742965234,125.68512183059457,673.4572968342911
713.8288814223004,129.50293933198392,681.5293703762244
710.1946128392469,121.86424518056626,689.3495740135521
702.1602687971938,133.426807319523,677.4168548892843
709.8937965564185,137.23646709120854,677.5198462267952
701.9410298114035,141.09609295733,669.5385274278169
706.9947433629222,137.50567217143472,704.9481729234755
709.9488612319193,125.66472750633501,681.4845028628533
702.6782846333866,129.69566569623674,693.1357803123392
705.658915123921,121.72250462696232,669.6598736571613
705.385631178843,140.96352984964287,657.8168895596357
721.372741965911,125.54134184456466,677.7309274828816
705.9862440282869,129.52843223730838,677.4872153079799
698.225183931312,121.85098886979755,677.3964605650249
706.3676178919408,125.76262026278087,689.2792135948566
718.0107376117228,117.96994896320355,693.4049853925653
697.8703226891957,129.4856041563633,665.5922256835923
718.0923149087611,129.57635889931834,693.3672558926852
695.0803791304882,125.91965655957948,696.9586963947934
710.1120158259957,129.56718145340153,685.3981736882627
706.2585082571521,129.5967532235779,685.3400498641229
709.6480449490907,141.03694941697728,669.6537553598833
702.8414392274631,133.59811964330328,697.0494511377485
706.1493986223635,133.43190590058788,681.4008861333892
713.8839460978011,137.24054595606043,681.5038774709
701.6147206232506,133.29016534698394,661.7101660607854
706.6674144585563,129.69974456108866,697.1198115564439
711.2306445116325,133.70926871051788,716.798295034492
706.122886000826,129.56310258854964,681.4141424441578
706.3676178919408,125.76262026278087,689.2792135948566
702.8414392274631,133.59811964330328,697.0494511377485
714.4570266094946,121.93664503168769,701.1874595300128
724.9804979274269,129.31123268394407,669.9229604401096
725.5800910606579,137.18548128055963,685.6041563632842
698.4158708631389,129.62224612890236,681.2978947958784
698.3067612283502,133.45637908969934,677.3587310651446
709.7846869216298,141.07060005200555,673.5806824960614
714.7568231761102,125.87376932999547,709.0280574916002
710.1120158259957,129.56718145340153,685.3981736882627
702.2143137564817,121.85506773464947,681.3815115253426
709.8122192593802,125.63005715509375,677.5575757266753
706.2860405949026,133.46555653561617,685.3278132695672
706.0953536630757,125.69429927651136,681.4263790387135
717.5192343970674,125.57091361474103,677.6728036587418
717.7914986259325,125.63923460101056,685.5266579310978
709.7306419623419,114.02364721897898,677.5953052265555
710.466877068112,121.9325661668358,697.2034282859081
709.4583777334769,113.95532623270945,669.7424706704124
709.7031096245915,129.46419011589074,673.6184119959416
706.2319956356147,125.72794991153962,685.3533061748916
721.4818516006995,141.01553537650474,677.6809613884457
718.1188275302984,133.4451622113566,693.3539995819165
702.705816971137,114.25410308311197,697.1126735429531
718.2830018405879,118.03826994947306,701.2578199487084
694.5888759158327,133.52062121111697,681.2275343771829
702.3784880667711,125.757521681716,685.2951823507518
713.9930557325897,133.40641299526345,685.4430412016336
706.2319956356147,125.72794991153962,685.3533061748916
714.1562103266662,137.30886694232998,689.3567120270429
705.522273151382,121.68885399193405,665.7329465209832
725.9349523027743,129.55086599399388,697.4094109609297
702.7323295926744,118.12290639515025,697.1004369483974
713.8839460978011,117.93119974711038,685.4940270122826
705.9862440282869,110.21908602835833,681.4773648493625
709.2401584638995,121.62461187051646,661.864143208945
705.7690444749228,98.57882151397267,677.5881672130647
713.9655233948394,129.53760968322516,685.4562975124024
717.9832052739723,114.10114565116528,693.417221987121
720.9363034267564,121.56954719501564,665.9644221013292
717.9281405984715,125.67288523603882,689.4525653510628
733.0964192665182,129.35406076488914,681.8189697807101
710.6024993244381,141.2755630108141,697.1402058807035
710.330235095573,141.2072420245446,689.2863516083474
709.9213288941688,141.10527040324678,677.5065899160264
706.1769309601139,137.30070921262615,681.3886495388334
705.7404924209594,114.01956835412706,673.6112739824508
720.8271937919678,125.40368015581265,662.0252583705956
702.8424589436761,114.28877343435323,701.0396006791311
710.1670805014966,117.995441868528,689.3628303243208
721.4818516006995,121.70618916755468,681.6700912136154
709.7846869216298,121.76125384305548,677.5698123212311
713.611681868936,117.86287876084087,677.6411924561395
709.7306419623419,133.332993427929,673.6061754013858
705.9046667312488,117.92202230119359,677.5249448078602
730.0882564382333,133.45841852212533,705.3071130304437
713.9930557325897,133.40641299526345,685.4430412016336
705.8220697179976,125.62597829024185,673.5735444825706
701.8880045683287,114.04914012430343,673.553150158311
718.364579137626,129.64467988558786,701.2200904488282
705.9587116905366,125.65962892527011,677.4994519025356
713.0661336949928,117.72623678830183,661.9345036276405
710.0304385289575,117.96077151728676,685.4359031881428
713.3934625993587,125.53216439864786,669.7628649946721
709.9213288941688,121.79592419429675,681.4967394574091
717.3285474652405,117.79863663942326,673.7723891441012
728.4526316326167,94.4288824420164,666.1683653439248
710.0855032044583,106.38903193241322,689.4005598242011
718.0372502332602,121.83875227524182,693.3917290817966
720.909790805219,117.70074388297738,665.976658695885
709.6755772868411,125.59640652006549,673.6306485904973
713.3118853023204,113.92575446253308,669.8005944945522
717.628344031856,121.73576093773106,681.6129871056885
717.028750898625,113.86151234111549,665.9317911825141
721.9998674368924,137.28337403700553,693.3988670952875
702.1327364594434,110.24865779853468,681.4192410252227
714.1021653673783,129.57126031825342,689.3822049323675
728.3159896600777,133.0138222532669,654.2621588411946
717.2469701682022,106.19324641952147,673.8101186439815
717.491702059317,121.70211030270276,677.6860599695106
725.1171398999659,129.34590303518533,673.8498875762875
721.4278066414118,113.96858254347816,681.6955841189398
721.50938393845,125.57499247959295,681.6578546190595
709.7306419623419,133.332993427929,673.6061754013858
726.1807039101019,125.75038366822515,705.2744821116285
718.1463598680488,118.0046193144448,697.3308928125304
687.5365185868774,168.50096618111183,692.7778599215839
723.9719985927917,102.02464654086769,646.4521523659967
735.7782729066502,78.82610269561982,658.4817445304972
720.582461900853,90.58547006368129,662.1384468702361
724.925433251926,140.8829722688176,665.9583038040514
736.1596467703039,132.98832934794248,658.3043139094391
732.4417614577865,133.0525714693601,662.1731172214774
729.407086007964,133.28710619834501,685.6745167819796
717.2194378304519,121.63378931643325,669.8332254133675
728.2344123630395,121.40741231715216,654.2998883410747
717.5742990725682,113.99815431365451,681.6374602948001
717.356079802991,121.66743995146152,673.7591328333325
716.8655963045485,109.95905839404895,662.0181203571047
721.0729453992955,102.29385162109386,673.880479062677
713.8299011385133,110.19359312303386,685.519519917607
709.2942034231874,110.05287228564292,665.8287998450032
725.5260461013701,129.44787465648312,685.6296492686087
722.1089770716811,133.4492410762085,697.3390505422342
709.9213288941688,121.79592419429675,681.4967394574091
737.5230073470555,133.3299342792901,697.5695064063672
