acc_x[mg],acc_y[mg],acc_z[mg]
-493.42232056818597,-227.34776911585507,817.7104311870007
-496.9484992326636,-238.8216159442827,829.4697985550623
-492.6585531246655,-215.571066572173,837.3042782193717
-504.1915434934458,-230.92187444234273,841.1088394099922
-489.48723570230413,-235.0812968750797,821.71995533643
-489.4321710268033,-227.34369025100318,821.6944624311056
-493.0684790422826,-215.67303819347077,825.5255362432636
-500.992693733334,-227.25395522426112,821.5211106748992
-500.72042950446894,-227.18563423799162,829.3739452310424
-496.5936379905472,-227.1468850218984,837.284903611325
-493.14903662310786,-227.27944812958557,825.5632657431438
-501.18338066516094,-235.02623219957889,817.6196764440457
-484.86996068994006,-223.33314638536098,841.3719261929406
-505.03688823400455,-234.99666042940254,817.561552619906
-493.5038978652242,-219.6448328430198,813.7580111454984
-488.94168752836094,-234.94465490254063,837.425624448716
-481.2071400529233,-231.1349951308551,837.5286157862269
-482.1615944282707,-231.37462844090496,810.0431849816197
-493.2041012986087,-235.0170547536621,825.5887586484681
-485.30639922909455,-227.30494103491,829.6054208113883
-481.6160462543275,-231.23798646836588,825.7488540939057
-481.04398545884686,-207.92217525862554,837.4531567864664
-484.92502536544083,-211.76140680048746,837.4072695568825
-477.9807579550611,-223.59827260073527,817.9286504565781
-488.8866228528601,-227.2070482784641,837.4001315433916
-492.7401304217037,-227.1764567920748,837.3430274354648
-500.93762905783325,-238.8267145253476,825.4857673109575
-489.48723570230413,-235.0812968750797,821.71995533643
-477.68096138844567,-238.97049451137752,829.758378243335
-485.4695538231711,-231.20739498197656,825.691749985979
-489.15990679793816,-227.27536926473368,829.5472969872486
-495.8849352225276,-223.10778910229288,856.9052632652334
-496.9484992326636,-238.8216159442827,829.4697985550623
-508.0725834000399,-234.76110598420465,841.0629521804084
-484.86996068994006,-223.33314638536098,841.3719261929406
-489.15990679793816,-227.27536926473368,829.5472969872486
-512.6888386961909,-246.50823675771034,821.4109813238975
-477.9542453335237,-219.72946928869698,817.9164138620223
-489.07730978468703,-234.9783055375689,833.4986973125381
-485.60619579571016,-231.2420653332178,821.7648228498009
-496.8118572601246,-238.78796530925445,833.3957059750272
-497.0576088674522,-234.98748298348573,825.5306348243284
-492.7401304217037,-227.1764567920748,837.3430274354648
-492.93081735353053,-234.94873376739258,833.4415932046113
-480.7441888922313,-223.29439716926785,849.2828845732234
-488.8050455558219,-215.60063834234938,837.3624020435113
-492.8227274349549,-219.47352051923951,833.3906073939623
-497.1932311237783,-235.021133618514,821.6037076881505
-481.5344689572893,-238.94092274120115,829.7012741354082
-488.9141551906105,-231.0758515905024,837.4133878541603
-488.64189096174545,-231.0075306042329,845.2662224103033
-492.63102078691503,-231.0116094690848,841.2821911661985
-493.5854751622624,-231.25124277913457,813.7957406453785
-488.83257789357225,-219.46944165438762,837.3756583542801
-493.06745932606964,-234.98238440242085,829.5146660684333
-497.03007652970183,-231.1186796714475,825.5173785135598
-489.1323744601878,-223.4065659526954,829.5350603926928
-488.53278132695675,-234.84166356502988,849.205386141037
-489.18743913568863,-231.14417257677192,829.5595335818042
-490.3866254021506,-227.583323561053,794.2080119102854
-496.64870266604805,-234.88449164597498,837.3103965166495
-496.89445427337574,-211.77466311125616,825.454156108355
-485.22482193205633,-215.6985310987952,829.567691311508
-473.82745381960206,-219.69072007260382,825.826352526092
-477.2720551870415,-219.5581569649167,837.5490101104863
-477.32610014632934,-227.29576358899322,837.5734832995978
-496.56712536900983,-223.27808170986017,837.2726670167692
-504.4372951007735,-227.121392116574,833.2427485430806
-493.80369443183963,-223.5819571413276,805.917413183911
-500.856051760795,-227.22030458923285,825.4470180948643
-493.12252400157047,-223.4106448175473,825.550009432375
-512.1443102384608,-227.06224857622124,833.127520611014
-488.5603136647072,-219.4011206681181,845.2284929104231
-496.4569960180082,-246.42258059582022,845.2009605726727
-504.4372951007735,-227.121392116574,833.2427485430806
-485.60619579571016,-211.93271912426772,817.7746733084183
-481.0990501343477,-215.65978188270208,837.4786496917908
-473.52765725298656,-235.0629419832461,837.657100029062
-481.8617978616552,-227.43750414259713,817.8837829432069
-485.16975725655556,-227.27027068366874,833.5313282313532
-496.9209668949132,-234.95281263224447,829.4565422442936
-496.10315449210486,-234.74784967343592,853.0160656289356
-488.8866228528601,-227.2070482784641,837.4001315433916
-496.6211703282977,-231.01568833393668,837.2971402058809
-488.8601102313227,-223.33824496642586,837.3878949488359
-485.6337281334605,-235.11086864525606,821.7770594443567
-501.2374256244488,-242.76383882365542,817.6451693493701
-496.64870266604805,-234.88449164597498,837.3103965166495
-492.5219111521264,-234.84574242988177,845.2213548969323
-504.60044969484994,-250.33421198880356,833.3182075428409
-492.71361780016633,-223.3086731962495,837.329771124696
-484.78838339290184,-231.03710237440922,845.324346234443
-485.11571229726775,-219.53368377580523,833.5068550422418
-488.8050455558219,-234.9099845512994,841.3525515848941
-481.1796077151729,-227.26619181881685,837.516379191671
-485.5786634579597,-227.3732620211795,821.7525862552453
-485.6337281334605,-235.11086864525606,821.7770594443567
-488.9141551906105,-231.0758515905024,837.4133878541603
-488.9141551906105,-231.0758515905024,837.4133878541603
-500.4196132216405,-242.55785614863387,841.2036730177992
-492.7676627594541,-231.04526010411305,837.3552640300206
-500.72042950446894,-227.18563423799162,829.3739452310424
-485.60619579571016,-231.2420653332178,821.7648228498009
-492.79519509720456,-234.91406341615132,837.3675006245762
-492.958349691281,-238.81753707943082,833.4538297991669
-477.5178067943692,-235.06804056431096,833.6730687849572
-489.18743913568863,-231.14417257677192,829.5595335818042
-501.1018033681227,-242.72916847241416,821.5710767693353
-485.08817995951733,-234.974226672717,837.4837482728558
-489.213951757226,-235.01297588881016,829.5727898925729
-488.9957324876488,-223.37189560145413,833.4609678126578
-492.5769758276273,-242.5833490539583,845.2458280860438
-493.25814625789644,-242.75466137773859,825.6132318375797
-485.44304120163366,-227.33859166993827,825.6784936752102
-480.71665655448095,-219.42661357344252,849.2706479786676
-496.56712536900983,-223.27808170986017,837.2726670167692
-493.69458479705105,-227.4160901021246,809.8565769146447
-489.18743913568863,-231.14417257677192,829.5595335818042
-485.3604441883824,-235.04254765898654,829.6309137167127
-492.8492400564923,-242.65167004022783,837.3929935299008
-485.16975725655556,-227.27027068366874,833.5313282313532
-485.1422249188052,-223.4014673716305,833.5190916367976
-489.40565840526585,-223.4748869389649,821.6812061203368
-485.333931566845,-231.1737443469483,829.6176574059441
-485.19728959430597,-231.13907399570704,833.5445845421219
-488.8050455558219,-234.9099845512994,841.3525515848941
-476.94472628267556,-231.0625952797337,849.3665013026875
-493.14903662310786,-227.27944812958557,825.5632657431438
-477.19047789000325,-227.26211295396496,841.5004104357758
-481.34378202546236,-231.16864576588335,833.6016886500488
-501.0742710303723,-238.86036516037592,821.5588401747794
-481.1796077151729,-227.26619181881685,837.516379191671
-489.59634533709277,-231.2461441980697,817.7807916056963
-493.09499166382,-238.8511877144591,829.527922379202
-485.060647621767,-231.10542336067877,837.4704919620871
-504.24558845273367,-238.65948106641926,841.1333125991038
-496.83938959787497,-242.6567686212927,833.408962285796
-481.5344689572893,-219.63157653225107,825.7111245940256
-485.55113112020933,-242.81380491809134,825.7294794858592
-477.2445228492911,-234.99971957804146,841.5259033411002
-485.16975725655556,-207.96092447471872,829.5421984061837
-485.16975725655556,-227.27027068366874,833.5313282313532
-488.83257789357225,-219.46944165438762,837.3756583542801
-489.2414840949764,-238.88177920084846,829.5850264871287
-485.96105703782644,-223.60745004665202,809.9595682521556
-500.992693733334,-227.25395522426112,821.5211106748992
-489.2965487704772,-227.30901989976195,825.6203698510706
-485.60619579571016,-231.2420653332178,821.7648228498009
-500.63783249121775,-234.88959022703983,833.3253455563317
-496.75781230083675,-231.0503586851779,833.3712327859158
-485.11571229726775,-219.53368377580523,833.5068550422418
-499.98419439869895,-219.27773500634777,848.9810485741818
-477.38116482183017,-215.72402400411968,833.6098463797526
-473.52765725298656,-215.75359577429603,833.6669504876794
-489.37812606751544,-219.60608362692665,821.668969525781
-489.15990679793816,-227.27536926473368,829.5472969872486
-496.6211703282977,-231.01568833393668,837.2971402058809
-504.3006531282345,-227.08774148154572,837.1696756792586
-493.2041012986087,-235.0170547536621,825.5887586484681
-497.03007652970183,-231.1186796714475,825.5173785135598
-501.15686804362355,-231.15742888754062,817.6074398494899
-505.4192818138713,-231.2298287386621,805.7695543330293
-488.8601102313227,-223.33824496642586,837.3878949488359
-504.137498534158,-223.1842678182662,841.0833465046679
-489.1048421224374,-238.8471088496072,833.5119536233067
-477.7084937261961,-223.5299516144657,825.7814850127211
-496.64870266604805,-234.88449164597498,837.3103965166495
-485.08817995951733,-215.66488046376693,833.4935987314732
-492.79519509720456,-234.91406341615132,837.3675006245762
-496.5936379905472,-227.1468850218984,837.284903611325
-497.0576088674522,-234.98748298348573,825.5306348243284
-489.18743913568863,-231.14417257677192,829.5595335818042
-485.1422249188052,-223.4014673716305,833.5190916367976
-493.12252400157047,-223.4106448175473,825.550009432375
-496.7302799630864,-227.18155537313967,833.357976475147
-492.71361780016633,-223.3086731962495,837.329771124696
-496.56712536900983,-223.27808170986017,837.2726670167692
-489.541280661592,-242.81890349915622,821.7444285255415
-489.81456460667005,-223.5778782764757,809.9014444280158
-485.2238022158434,-235.00787730774528,833.5568211366777
-493.4763655274737,-254.39472194888165,821.7250539174948
-477.3536324840797,-231.16456690103146,837.5867396103665
-489.48723570230413,-235.0812968750797,821.71995533643
-469.86483661596986,-242.86479072874022,833.8137896223483
-500.82851942304467,-261.9701936950947,833.4140608668608
-488.9957324876488,-223.37189560145413,833.4609678126578
-481.64357859207786,-235.10678978040417,825.7621104046746
-481.5069366195388,-235.0721194291629,829.6880178246395
-477.73602606394644,-227.39875492650398,825.7947413234898
-496.5936379905472,-227.1468850218984,837.284903611325
-500.61131986968036,-231.0207869150016,833.313108961776
-504.46482743852397,-230.99019542861222,833.2549851376364
-489.02326482539917,-227.24069891349242,833.4742241234267
-477.7084937261961,-223.5299516144657,825.7814850127211
-489.213951757226,-235.01297588881016,829.5727898925729
-477.84513569873513,-223.563602249494,821.8555775927559
-481.316249687712,-227.3008621700581,833.5894520554931
-481.04398545884686,-227.2315214675756,841.4422866116361
-504.60044969484994,-231.02486577985349,829.3290777176712
-492.4138212335507,-219.37154889794172,845.1703690862834
-493.06745932606964,-234.98238440242085,829.5146660684333
-496.78534463858716,-215.60981578826613,829.3933198390889
-492.68608546241586,-219.43986988421125,837.3175345301404
-484.9240056492279,-231.0707530094375,841.397419098265
-483.8604416390919,-234.66627237639767,872.8230333498187
-485.2788668913442,-223.43613772287176,829.5921645006196
-500.42063293785344,-223.2485099396838,837.2145431926295
-477.19047789000325,-207.95276674501488,837.5102608943931
-508.23675771032924,-219.35421372232113,833.1591318136165
-505.63750108344857,-223.56054310085506,797.8912268715617
-501.0742710303723,-238.86036516037592,821.5588401747794
-508.72724120877166,-231.06361499594666,821.4181193373886
-504.27414050669705,-223.21893816950742,837.1564193684899
-492.4678661928386,-227.1081358058053,845.1958619916078
-480.71665655448095,-219.42661357344252,849.2706479786676
-472.43758062131315,-215.48031182921795,865.0793084284645
-476.94472628267556,-211.75222935457063,845.3763517613049
-457.81383041099673,-211.93577827290667,841.7390240296127
-472.90053178200515,-204.0105438656422,849.3359098162983
-496.78432492237414,-234.9191619972162,833.3834693804716
-508.42744464215616,-227.12649069763887,829.2587172989759
-501.8931031493936,-219.7559819102344,794.0101869649677
-509.0545701131376,-200.25085018839258,805.6104786038046
-521.1881733313619,-184.8572142372778,785.7535447884854
-536.2748747023704,-176.9329995462263,793.350430575171
-521.5155022357279,-192.66314184762385,777.9262031376669
-535.8935008387167,-180.6988115207538,805.1424288620477
-521.3523476416515,-169.45134169160724,777.8497244216935
-520.9699540617847,-173.21715366613472,789.6427424247834
-520.8067994677083,-188.6230262118053,797.5455430753623
-516.7880978723622,-223.36883645281523,809.4976368076765
-500.5837875319299,-227.1519836029633,833.3008723672202
-504.9553109369663,-242.69959670223778,821.5139726614085
-501.456664610239,-235.09455318584838,809.7668418879026
-493.69458479705105,-227.4160901021246,809.8565769146447
-488.9957324876488,-223.37189560145413,833.4609678126578
-504.46482743852397,-230.99019542861222,833.2549851376364
-492.6585531246655,-234.88041278112303,841.2944277607543
-470.1921655203358,-250.67071833908625,825.9854282553166
-485.2513345535938,-238.87668061978354,833.5700774474466
-488.15038774709,-238.60747553955736,860.9973844279139
-492.71259808395325,-242.61801940519956,841.3199206660787
-473.82745381960206,-219.69072007260382,825.826352526092
-481.56200129503964,-223.50037984428937,825.7233611885814
-477.2169905115407,-231.1309162660032,841.5126470303317
-485.00660266247905,-223.36781673660224,837.4460187729757
-488.9692198661113,-219.5030922894159,833.448731218102
-484.7057863796506,-238.7400386472445,849.2757465597325
-489.07730978468703,-254.28765174651897,837.4888468539207
-485.4695538231711,-250.51674119092658,829.6808798111487
-477.62589671294484,-250.54223409625106,833.7230348793933
-485.44202148542064,-265.95830380405135,833.6577730417625
-473.1452636731198,-258.13911988293665,853.4392478573213
-473.5817022122744,-262.10989481627263,841.6717227595561
-469.80977194046903,-254.43653031361373,837.7784462584063
-469.6190850086421,-246.665273054509,841.678860773047
-481.315229971499,-265.9195545879582,841.5687314220453
-469.9464139130081,-254.471200664855,833.8515191222283
-473.7723891441012,-250.57180586642738,833.7811587035329
-469.97394625075844,-258.3389842606803,833.8637557167841
-477.70747400998306,-262.14864403236584,833.7607643792733
-473.63676688777525,-250.53815523139912,837.7080858397109
-489.34957401355206,-254.3559727327885,829.6360122977776
-481.8342655239048,-262.187393248459,825.8498059989905
-473.96307607592814,-258.34408284174515,829.8797244726793
-489.04977744693656,-250.41884843448068,837.4766102593649
-481.588513916577,-246.67852936527768,829.7267670407326
-481.56098157882667,-262.1190722621895,833.7036602713466
-482.10652975276986,-262.2557142347285,817.9969714428476
-465.9562643716254,-254.4661020837901,837.8355503663331
-485.6051760794971,-269.8607577511179,829.7441022163533
-481.8342655239048,-262.187393248459,825.8498059989905
-481.588513916577,-265.9878755742277,833.7158968659023
-469.7281946434308,-262.13946658644903,841.7298465836959
-481.86077814544217,-266.05619656049726,825.8630623097594
-478.0623352520994,-254.51402874580006,821.9565294978407
-473.7723891441012,-250.57180586642738,833.7811587035329
-478.0898675898498,-258.3828320578383,821.9687660923965
-481.915842820943,-254.4844569756237,821.8984056737011
-485.27784717513117,-262.05483014077186,837.5724635833848
-485.79688272753697,-258.32266880127264,821.8535381603301
-493.4763655274737,-254.39472194888165,821.7250539174948
-485.9059923623256,-254.48853584047563,817.9143744295965
-493.3121912171843,-250.49226800181512,825.6387247429042
-485.79688272753697,-258.32266880127264,821.8535381603301
-493.36725589268514,-258.22885490967866,825.6642176482286
-481.47940428178845,-250.5126623260747,833.6659307714665
-477.62589671294484,-250.54223409625106,833.7230348793933
-493.69458479705105,-246.72543631107467,813.8467264560275
-474.09971804846714,-258.3777334767734,825.9527973365015
-477.8716483202725,-246.7417517704823,825.8579637286945
-493.12150428535745,-262.02933723544743,833.5303085151403
-485.63270841724756,-254.42021485420614,825.7672089857394
-497.6296696629329,-258.3022744770131,813.8263321317678
-492.958349691281,-258.12688328838084,837.4439793405496
-480.9613884455956,-254.2448236655739,849.3838364783082
-472.9545767412929,-250.36684290761883,857.3406820881751
-477.5167870781562,-254.37738677326104,837.6621986101269
-474.20882768325583,-254.54360051597644,822.0136336057676
-481.8342655239048,-262.187393248459,825.8498059989905
-485.85092768682483,-246.7509292163991,817.8888815242718
-473.9906084136785,-262.2128861537834,829.8919610672351
-465.9837967093759,-258.33490539582834,837.848806677102
-481.56098157882667,-262.1190722621895,833.7036602713466
-485.8233953490745,-262.1914721133109,821.8657747548857
-481.67009121361525,-258.2839195851795,829.7644965406128
-482.21563938755844,-258.4215812739315,814.0578077121138
-477.59938409140744,-246.67343078421277,833.7107982848374
-478.1989772246385,-254.54767938082833,818.0296023616629
-477.2720551870415,-238.86750317386677,841.538139935656
-458.33184624718945,-246.82230935130758,833.9993779731101
-462.6217923551876,-250.7645322306802,822.1747487674181
-470.1921655203358,-250.67071833908625,825.9854282553166
-485.2513345535938,-258.1860268287336,837.559207272616
-477.81658364477175,-258.3145110715688,829.8216006485396
-478.14391254913767,-246.8110924729648,818.0041094563384
-470.3828524521626,-258.44197559819105,822.085013740676
-469.97394625075844,-258.3389842606803,833.8637557167841
-474.20882768325583,-254.54360051597644,822.0136336057676
-474.0721857107168,-254.5089301647352,825.9405607419457
-481.7526882268665,-250.58098331234422,825.8120764991104
-473.82745381960206,-258.3094124905039,833.8066516088574
-485.27784717513117,-262.05483014077186,837.5724635833848
-481.86077814544217,-266.05619656049726,825.8630623097594
-466.1204386819149,-258.36957574706963,833.9218795409239
-473.96307607592814,-258.34408284174515,829.8797244726793
-473.55416987452395,-258.2410915042344,841.6594861650003
-474.09971804846714,-258.3777334767734,825.9527973365015
-469.86483661596986,-262.17413693769026,837.8029194475179
-469.7281946434308,-262.13946658644903,841.7298465836959
-465.82064211529934,-254.43245144876184,841.7624775025112
-482.1340620905202,-246.81517133781674,814.0200782122336
-477.81658364477175,-258.3145110715688,829.8216006485396
-485.38695680991987,-258.2206971799749,833.6332998526511
-474.6452662224103,-258.51539516552543,810.2471282242153
-469.80977194046903,-254.43653031361373,837.7784462584063
-482.1340620905202,-266.12451754676675,818.0102277536164
-469.9188815752576,-250.60239735281675,833.8392825276727
-477.68096138844567,-258.27984072032757,833.7485277847177
-466.0653740064141,-250.63196912299313,833.8963866355995
-485.4144891476703,-242.78015428306307,829.6553869058241
-466.33865795149217,-250.70029010926262,826.0435520794565
-481.8617978616552,-246.7468503515472,821.8729127683766
-474.3179373180444,-250.7094675551794,818.0744698750339
-481.4243396062877,-262.0844019109482,837.6295676913116
-477.2985678085789,-242.736306485905,841.5513962464248
-481.56098157882667,-262.1190722621895,833.7036602713466
-466.2020159789531,-250.6656197580214,829.9704792156343
-477.59938409140744,-246.67343078421277,833.7107982848374
-466.39270291078003,-258.43789673333913,826.0690449847808
-481.34378202546236,-250.47901169104642,837.5918381914314
-477.59938409140744,-246.67343078421277,833.7107982848374
-473.5551895907369,-238.93174529528434,837.6693366236177
-477.8441159825221,-242.87396817465702,825.8447074179257
-472.9545767412929,-250.36684290761883,857.3406820881751
-477.32610014632934,-246.60510979794324,841.5636328409804
-473.7999214818517,-254.44060917846568,833.7933952980886
-478.00727057659856,-266.0857683306736,825.9201664176861
-481.915842820943,-254.4844569756237,821.8984056737011
-493.7210974185885,-269.90358583206296,817.8491125919658
-482.02495245573164,-269.9586505075638,821.94939148435
-485.08716024330437,-254.28357288166706,841.4728780980254
-478.1989772246385,-235.2383331718783,814.0394528202802
-481.34378202546236,-231.16864576588335,833.6016886500488
-485.96003732161347,-242.9167962556021,813.9497177935382
-492.71259808395325,-242.61801940519956,841.3199206660787
-469.4008657390649,-254.33353897610297,849.5582079507274
-481.2887173499616,-262.05075127591994,841.5564948274897
-470.0830558855471,-254.50485129988326,829.9245919860505
-481.96988778023086,-262.22104388348725,821.9238985790256
-474.2363600210062,-258.4124038280147,822.0268899165363
-477.8441159825221,-242.87396817465702,825.8447074179257
-488.6959359210332,-258.05346372104646,849.2808451407974
-478.0898675898498,-239.07348584888828,817.9796362672269
-478.14391254913767,-246.8110924729648,818.0041094563384
-489.7319675934188,-250.59016075826102,817.8440140109009
-474.4270469528331,-246.87431487816943,814.1353061443001
-481.12454303967206,-258.14727761264044,845.4701656528989
-497.7928242570094,-262.2047284240796,809.9126613063585
-477.95322561731075,-258.34816170659707,825.8956932285746
-481.56098157882667,-262.1190722621895,833.7036602713466
-481.5069366195388,-254.38146563811293,833.6781673660221
-473.6092345500248,-246.66935191936088,837.6948295289423
-501.04673869262194,-254.3009080572877,825.5357334053933
-473.5001249152361,-250.50348488015788,841.6339932596759
-481.04296574263384,-246.5418873927386,845.4324361530188
-474.20882768325583,-254.54360051597644,822.0136336057676
-473.41752790198495,-258.20744086920615,845.5864133011784
-489.78601255270667,-258.3277673823375,817.8684872000124
-481.56098157882667,-262.1190722621895,833.7036602713466
-481.915842820943,-254.4844569756237,821.8984056737011
-470.5735393839895,-246.9038866483458,814.1934299684399
-485.71530543049874,-246.71727858137083,821.8158086604499
-481.7526882268665,-250.58098331234422,825.8120764991104
-485.4695538231711,-250.51674119092658,829.6808798111487
-469.75572698118117,-246.69892368953725,837.7529533530819
-493.01239465056887,-265.8644899124574,837.4694722458742
-482.10652975276986,-262.2557142347285,817.9969714428476
-508.67217653327083,-261.94470078977025,829.3719057986164
-477.2445228492911,-254.3090657869915,845.5150331662699
-478.03480291434903,-269.95457164271187,825.9334227284548
-481.34378202546236,-250.47901169104642,837.5918381914314
-485.38695680991987,-258.2206971799749,833.6332998526511
-465.9837967093759,-239.02555918687833,833.8586571357192
-462.6758373144755,-239.19177292959372,818.2100921313598
-465.90221941233756,-246.72849545971357,837.8110771772217
-481.96988778023086,-262.22104388348725,821.9238985790256
-493.55794282451205,-266.0011318849964,821.7627834173751
-473.28190564565887,-238.86342430901482,845.5231908959738
-481.1796077151729,-246.57553802776687,841.5055090168407
-478.171444886888,-231.36952985984001,814.0272162257245
-470.0279912100463,-246.76724467580675,829.900118796939
-481.7251558891161,-246.71218000030595,825.7998399045547
-489.45970336455366,-250.5218397719915,825.6968485670438
-489.7319675934188,-250.59016075826102,817.8440140109009
-473.9090311166403,-250.60647621766864,829.8542315673549
-485.55113112020933,-262.12315112704135,829.7186093110289
-489.26799671651384,-262.0589090056238,833.587412623067
-485.44202148542064,-246.6489575951013,829.6686432165928
-485.74181805203614,-250.58608189340907,821.8280452550057
-485.60619579571016,-250.55141154216784,825.7549723911836
-501.1007836519097,-262.0385146813642,825.5612263107179
-470.2462104796235,-258.4083249631628,826.0109211606411
-478.11638021138725,-262.2516353698766,821.9820224031654
-493.06745932606964,-254.29173061137087,833.5048156098159
-489.7594999311692,-254.45896407029926,817.8562506054566
-473.5817022122744,-242.80054860732264,837.6825929343864
-477.62589671294484,-250.54223409625106,833.7230348793933
-489.56881299934236,-246.68668709498147,821.7576848363102
-485.27784717513117,-262.05483014077186,837.5724635833848
-493.44883318972336,-250.5259186368434,821.712817322939
-473.85498615735247,-242.86886959359214,829.8297583782435
-481.5069366195388,-254.38146563811293,833.6781673660221
-466.4467478700678,-266.17550335741566,826.0945378901052
-489.78601255270667,-258.3277673823375,817.8684872000124
-466.0929063441645,-254.50077243503137,833.9096429463682
-481.588513916577,-265.9878755742277,833.7158968659023
-473.7183441848135,-262.1445651675139,837.745815339591
-481.2887173499616,-262.05075127591994,841.5564948274897
-481.45289166025105,-246.64385901403645,833.6526744606978
-493.39376851422253,-262.0976582217169,825.6764542427844
-470.0830558855471,-254.50485129988326,829.9245919860505
-462.2118664375705,-250.66154089316944,833.9545104597391
-473.9906084136785,-262.2128861537834,829.8919610672351
-485.5776437417467,-265.9919544390797,829.7318656217975
-481.3978269847502,-258.21559859891,837.6173310967558
-489.3220416758017,-269.79651562970025,833.6129055283916
-485.4144891476703,-262.0895004920131,833.6455364472067
-481.77920084840395,-254.44978662438245,825.8253328098791
-473.55416987452395,-258.2410915042344,841.6594861650003
-477.73500634773353,-266.0174473444041,833.774020690042
-485.27784717513117,-262.05483014077186,837.5724635833848
-470.4644297492008,-250.73903932535578,818.1325936991736
-466.1204386819149,-258.36957574706963,833.9218795409239
-485.8233953490745,-262.1914721133109,821.8657747548857
-474.3454696557949,-254.5782708672177,818.0877261858026
-481.3978269847502,-258.21559859891,837.6173310967558
-477.6534290506952,-254.4110374082893,833.7362911901619
-490.33156072664985,-258.4644093548766,802.1628180877262
-481.5344689572893,-258.2502689501512,833.6904039605779
-473.7999214818517,-254.44060917846568,833.7933952980886
-485.08716024330437,-254.28357288166706,841.4728780980254
-485.6877730927484,-262.15782147828264,825.7927018910638
-481.7251558891161,-266.02152620925597,829.7889697297243
-481.56098157882667,-262.1190722621895,833.7036602713466
-477.2169905115407,-269.7496086839033,849.4929461130968
-493.6395201215503,-258.2981956121612,817.8113830920855
-489.43115131059034,-265.9623826689033,829.6737417976577
-474.61875360087294,-235.33724564453715,806.2447420882769
-470.0279912100463,-246.76724467580675,829.900118796939
-473.74587652256383,-246.70402227060214,833.7689221089771
-474.0181407514289,-266.08168946582174,829.9052173780038
-481.5069366195388,-254.38146563811293,833.6781673660221
-485.44202148542064,-265.95830380405135,833.6577730417625
-474.26287264254364,-262.2812071400529,822.0391265110921
-470.0279912100463,-246.76724467580675,829.900118796939
-477.9807579550611,-262.21696501863534,825.9079298231303
-477.92569327956033,-254.47935839455883,825.8824369178059
-469.6190850086421,-246.665273054509,841.678860773047
-458.1952042746504,-266.0980049252293,841.9164546506709
-468.9644271999103,-250.36276404276694,861.3247133322797
-477.8991806580229,-250.61055508252056,825.8702003232501
-485.79688272753697,-258.32266880127264,821.8535381603301
-493.0664396098566,-273.6020965365339,837.4939454349856
-493.3121912171843,-269.80161421076514,829.6288742842868
-489.5677932831294,-265.9970530201445,825.7468146614799
-482.07899741501944,-258.3869109226903,817.9847348482917
-462.29344373460873,-262.26795082928425,833.9922399596194
-469.6190850086421,-246.665273054509,841.678860773047
-474.29040498029406,-266.15001045209124,822.0523828218606
-458.22171689618784,-269.9668082372676,841.9286912452267
-473.8814987788899,-266.04701911458045,833.8321445141818
-466.4202352485304,-262.3067000453774,826.0812815793365
-473.85396644113945,-262.1782158025422,833.8188882034132
-473.9090311166403,-269.9158224266187,833.8443811087376
-481.0154334048835,-261.98243028965044,849.4093293836327
-473.7999214818517,-254.44060917846568,833.7933952980886
-477.40767744336756,-258.211519734058,841.6013623408606
-481.9433751586934,-258.353260287662,821.9106422682569
-481.7526882268665,-250.58098331234422,825.8120764991104
-477.40767744336756,-258.211519734058,841.6013623408606
-470.21867814187317,-254.53952165112452,825.9986845660853
-496.838369881662,-261.96611483024276,837.3991118271787
-474.4535595743705,-270.0524643991577,818.1376922802384
-469.9464139130081,-254.471200664855,833.8515191222283
-494.2126006332438,-262.30364089673844,802.1179505743552
-477.70747400998306,-262.14864403236584,833.7607643792733
-458.5765781383041,-262.33117323448886,830.123436647581
-469.70066230568034,-258.27066327441077,841.7176099891401
-469.80977194046903,-254.43653031361373,837.7784462584063
-455.24108640565333,-258.629603381379,814.462635048666
-465.9837967093759,-258.33490539582834,837.848806677102
-473.8814987788899,-266.04701911458045,833.8321445141818
-462.32097607235914,-266.1367541413225,834.0054962703881
-478.171444886888,-269.9892419939531,822.0064955922768
-469.89134923750726,-266.04294024972853,837.8161757582866
-485.1422249188052,-262.0211795057436,841.4983710033499
-485.44202148542064,-265.95830380405135,833.6577730417625
-485.5776437417467,-265.9919544390797,829.7318656217975
-477.92569327956033,-254.47935839455883,825.8824369178059
-466.4202352485304,-262.3067000453774,826.0812815793365
-488.9141551906105,-250.3851977994524,841.40251767933
-485.30537951288164,-265.9236334528101,837.5847001779406
-466.5293448833191,-258.47154736836745,822.1421178486028
-489.541280661592,-262.1282497081063,825.7345780669241
-482.2972166845968,-270.0269714938333,814.095537211994
-493.5028781490112,-277.57287146986994,825.7274400534332
-473.66327950931264,-273.71630475238743,841.7104719756493
-489.5677932831294,-265.9970530201445,825.7468146614799
-473.74485680635087,-266.0133684795521,837.7580519341468
-477.5167870781562,-254.37738677326104,837.6621986101269
-470.00045887229595,-262.20778757271853,833.8770120275528
-481.34378202546236,-250.47901169104642,837.5918381914314
-469.5925723871047,-242.7964697424707,841.6666241784912
-465.9837967093759,-258.33490539582834,837.848806677102
-481.2887173499616,-262.05075127591994,841.5564948274897
-482.0514650772691,-273.82745381960206,821.9616280789056
-478.33459948096447,-273.89169594101963,818.0928247668675
-466.66496713964506,-277.81556392855873,822.2053402538074
-473.7723891441012,-269.88217179159045,837.7713082449156
-466.4467478700678,-266.17550335741566,826.0945378901052
-478.14391254913767,-266.12043868191483,821.994258997721
-485.3594244721695,-273.66124007688666,837.610193083265
-466.03784166866365,-266.0725120199049,837.8742995824263
-474.4535595743705,-289.3618106081078,822.1278418216211
-483.2506513437311,-328.19464343073327,798.5795353153218
-474.69829146548517,-304.8716942075021,818.251900496092
-486.0140822809013,-289.2730952975787,821.9544900654149
-474.09971804846714,-277.6870796857235,829.9429468778841
-466.17346392498973,-304.72587478904626,841.9266518128006
-459.3393258656116,-312.72758791228404,818.5088689817625
-481.9688680640178,-339.4594484355004,837.8824573121302
-463.43756532556995,-328.206880025289,814.5748038320936
-451.0051852569431,-301.04469926019596,834.2920365262347
-444.00789260348853,-285.8335925112042,810.7977749792234
-455.32266370269156,-308.8547057353939,822.4806636313115
-459.9124063773053,-316.73303319686136,802.8154364640321
-463.71084927064805,-328.2752010115585,806.7219692759506
-479.6694080037526,-347.6029021123422,794.7739544084882
-491.339040345072,-362.9883803337531,794.6505687467179
-487.1582038718625,-355.21202449358344,802.5370539378891
-494.3737157948944,-362.75282588855526,818.1519683072202
-494.1830288630675,-354.98156862945046,822.0534025380738
-502.8169660383516,-370.60260129605933,798.4296370320142
-487.6762197080553,-370.78920936303433,790.8072583400041
-510.66062314857777,-370.5771083907349,794.3874819637696
-487.5120453977658,-386.19610162491784,798.711078706796
-488.2758128412864,-359.3541117506998,771.1369325916598
-487.92095159917,-386.2990929624286,786.931317014475
-491.4746626013981,-363.0220309687814,790.7246613267529
-502.8169660383516,-370.60260129605933,798.4296370320142
-487.21224883115036,-382.25897732661,806.5516766683834
-483.49436351863284,-401.6325656569777,806.6730228977276
-498.60757751117865,-416.8854807707016,818.2712751041386
-487.7017126133798,-413.2777248091857,798.7997940173251
-467.8896463114316,-413.2889416875284,814.7950625340968
-445.06839746498554,-417.4045163231074,807.3011680849221
-428.8375745030159,-378.7001677433171,823.1128876833578
-436.8443862073185,-382.57712878505913,815.156042073491
-458.491941692627,-405.2005526861875,862.003844330123
-458.2472098015123,-389.6916888030062,865.8797856556521
-423.7848806677103,-343.67189611131226,850.5422340962511
-438.625830431391,-358.8564902387666,869.994340575018
-448.9596345337094,-319.8401084978051,897.1799748130096
-467.1544309218745,-366.76235003798445,826.4228865106842
-507.18848944338794,-347.5315219774337,778.6634579596499
-497.1289890023607,-328.6871663616016,731.6545405413675
-463.157143367001,-294.37575522732027,704.5749567895256
-424.57006215170327,-229.00786711058316,693.1592337852377
-448.5435903188144,-247.35664064690798,783.1277755400672
-452.6142974410222,-316.89516807472484,791.1509027037777
-424.08467723432574,-366.91836661857013,846.6917856760465
-448.4956636568044,-331.30987646138084,912.9243931413889
-564.5363095450537,-315.07905349941115,895.4332009401785
-618.9218540480184,-299.3244380089021,878.8668913441392
-687.1582038718625,-260.8841959282732,791.3732008382068
-656.2964926860856,-165.56214405530943,662.0018048976971
-617.3810628502088,-131.00702074612636,666.39270291078
-643.5092513753423,-184.6532709946822,701.503571556036
-569.4737754482928,-262.2506156536636,742.1209077513729
-531.1834316509716,-278.0572366710345,738.8231455186022
-560.4309320716045,-246.5276113657569,777.5244349497535
-611.644139435995,-230.97387996920463,741.3836529293898
-609.7637827392637,-176.43537803429308,784.3983419414377
-557.31671875717,-80.68127240189057,722.0671687069489
-565.9771685539915,-119.48014867462386,702.4447696206147
-555.5974772220892,-126.59266926014492,781.1168951680748
-557.5971407157389,-114.5120912849954,832.065996033304
-509.5827831114602,-114.4243956906793,883.8053769635912
-537.4852778471752,-91.27775540067199,851.9127326864934
-563.8796123038959,-14.682485864183999,741.3693769024081
-635.1037306317653,-40.650884858743815,803.1835540169172
-593.8449929384652,94.90152090673166,854.3651501787054
-575.8571989415346,-9.839608836860704,839.2886459698267
-550.2714994417055,-130.11476905977068,824.3793752198765
-477.05485563367716,-169.29940397587353,833.4579086640189
-510.4566799059822,-83.74857877052818,852.2920671177211
-548.9377106351303,-37.09472653760459,843.709115753086
-565.6049721362546,-79.77107371018646,816.130890773098
-532.0685453238365,-88.05004767173297,785.264081006256
-517.5273921267712,-115.42065843075873,765.9516756486671
-516.7085600077498,-153.83438788985026,797.4904783998614
-556.0053637072803,-184.62369922450586,781.3065623836887
-563.0587407524487,-149.643354254511,792.8568879280897
-601.0217556454039,-87.41180729403008,796.0027124451266
-638.4932673237039,-71.39991740298676,822.8599980625393
-677.5188265105822,-82.81115365593757,810.53978677734
-650.7900251360047,-79.2191013241015,803.0795429631934
-647.6717329567182,-106.46653036459954,787.5196932693632
-640.1278724131075,-149.04783998613186,791.7005297425727
-613.0442097964137,-153.09101477058937,796.0445208098588
-607.3552130442099,-169.10361846298176,741.2388532271469
-635.9919034532691,-211.79403771930274,701.7075147986317
-651.6516853359711,-207.8742485966156,693.6109680675868
-683.488245221355,-215.6128749369051,665.6880790076123
-637.6295676913115,-134.96657880111965,638.6299092962429
-650.6717380552993,-107.21908092977726,701.135454003151
-681.5538435653359,-95.40923760917337,696.7078462064009
-690.7975710359807,-75.42902010370514,759.2959879265602
-699.0491146313982,-94.81576277322023,747.4642207073772
-707.0283939979505,-133.44312277893064,747.47543758572
-723.3958589324592,-133.56344929206202,719.757511484554
-704.4831823303575,-145.3870587815411,712.2320058327768
-702.293851621094,-130.3870332886358,661.1941896570185
-695.0773199818491,-142.15455838640108,649.5673853966441
-669.4661275766955,-181.32389755930927,618.6862996028206
-643.7723381582906,-208.88682679610267,587.7674843091169
-608.9021225392974,-143.45469655794793,580.2195449006542
-618.8270204402115,-85.02720092998119,615.1958110057972
-667.7856352577078,-52.463685356365325,751.7143978830693
-742.2371553996524,-47.349910519902316,825.1492609606748
-699.931169155624,-39.97399723656907,821.8331438360706
-654.6720847588117,-25.12978438100677,791.0642268256745
-640.6479276817263,-48.7690495735037,756.0328960450308
-629.7318656217975,-127.2544650823676,642.647591175376
-635.9837457235652,-197.34058011655358,587.8449827413032
-630.9769391178436,-213.52449613272628,513.4067189101273
-552.828947703854,-35.20539633819909,619.9405505447834
-569.6257131640266,90.14046590833772,776.2508093997442
-619.5387823568701,122.46485803001028,885.2839654724091
-628.2553165454055,153.16647377034974,849.7285005582947
-475.66396271917534,216.24305955652545,683.0426292362837
-372.7399264784611,269.22547455043264,641.2342645041886
-778.2820840959962,67.56017600301837,1095.0222553063484
-623.5534050873642,22.044327063778155,901.2608790973474
-506.5613639724065,160.5278051118374,914.3203846369556
-691.5378850066028,224.7413744754835,1009.4486904294536
-870.4674888978398,92.39301902280597,763.8877700335997
-764.2711833296794,11.902637495984868,510.650425986448
-599.3810322587224,-33.057160192318484,387.68386757965266
-600.7229787950014,-159.84051638429025,486.2068086451541
-625.4225449057528,-172.5166086278189,776.301795210393
-608.5462415809682,-94.03384438110875,913.6514508012422
-666.7404261394055,-7.7275318278922995,994.9054977999625
-710.7105892430137,19.236232556479536,943.135525383286
-746.69127581794,-16.575589013577524,801.4316815630211
-713.6463522201772,-17.253904238450442,754.8326900623557
-613.9191263071488,-45.17699724166765,748.5716325146713
-560.870429759398,-96.02382057073517,733.8397923857791
-529.823130222859,-123.23984235187348,746.1702008331082
-534.8758240581647,-177.57746019282837,722.7299842453846
-570.110078365191,-211.2097403292664,824.355921746978
-601.7906216699894,-268.1170430269256,922.1885149362934
-672.4416594861651,-328.69940295615737,1007.676423651298
-654.2662377060465,-251.88418063252996,960.5940866656812
-617.4799753228677,-132.90063375362638,886.1762171587648
-601.111490672146,-113.47096103154495,909.9039937185481
-619.3613517358119,-110.2017508527377,827.2019496973994
-541.331647402528,0.4428841653367868,722.0324983557077
-468.32812428301213,79.92800803536377,589.421464006567
-433.4558692315929,106.7408340258906,589.8528039646567
-475.8770834076877,-27.10986932336731,727.0311472317255
-513.8635517735414,-161.84119959415298,770.0876446085056
-559.347993453422,-260.707785023428,922.799324947867
-685.4461003502727,-379.1773949309907,976.2548882645962
-864.3308367281387,-460.3121351327926,832.5625978290243
-960.0240653026264,-438.2281411083296,623.0506849943661
-889.6106213640745,-359.39286096679297,415.8341533551213
-750.1154828611199,-276.30536421713845,311.67829992912976
-686.0518117807815,-308.0695242514009,277.4239929027752
-576.62606496612,-381.89493863857695,338.1817440206391
-542.9162863974956,-391.9993065929752,534.951283057925
-576.7963575736873,-496.79860094935583,468.07931352704554
-682.1371212391592,-609.3120484569146,341.29289818643474
-629.9613017697176,-629.4830548658309,295.0467284954597
-404.64786649875344,-367.14780276649014,407.4265931791183
-373.1396552339485,-270.6683729917964,407.5724125975741
-409.6291801991506,-269.85769860247893,465.8930419664208
-488.1585454767939,-368.0451530339107,665.2037138064477
-636.7413948698078,-403.0836218280453,941.7436127525712
-691.346178358563,-206.74746218127495,1214.9918677632015
-741.1970448624148,-152.23343343547492,1210.127821427297
-848.094915185104,-176.31301208873572,1020.2260710844174
-776.5067581692016,-162.83644261801942,860.3478252002468
-674.3903371691658,-230.77095644282198,709.0464123834338
-774.0675969877584,-440.4052352230375,543.4261445039846
-836.2957788847365,-443.9344730361541,526.8068096648703
-798.6162450989891,-404.83039570087647,605.731824833149
-828.4602795042141,-497.0321159621278,652.6917958732085
-874.9287473296183,-579.8238950100189,440.34507196647183
-806.841276072869,-516.0233107126287,280.2404490830202
-706.3278489596346,-315.89788561843244,249.67445559900682
-775.9775254546661,-536.5583558095783,174.80791095838032
-840.1727399264787,-736.5420403501706,253.01300648029655
-855.7336093365218,-615.7444183283793,334.78914818006155
-852.7458408324964,-455.66120948540026,499.12865249601043
-779.3487072547712,-385.66992805902123,602.0312746962521
-730.888733665421,-463.70473097337015,571.6233372252503
-848.5507283323053,-723.0726088929451,452.9977107371019
-854.0266043959967,-521.6348090326463,475.78428923230666
-903.3767902392765,-518.1953062462717,384.7664594943228
-707.7228207389884,-527.6552135540679,364.1814483029373
-691.0963478863832,-729.2857397786197,329.7894795878307
-744.3275736362572,-634.010594851453,552.374154272866
-847.1945057690446,-394.4710986932337,424.4374990440161
-958.1834775382013,-304.5933116813591,426.3963738891467
-1052.2553573340542,-349.6239796464644,499.7068315887689
-945.2045295794181,-315.91216164541413,469.79957477833926
-979.0856204718227,-382.09174386768166,394.9473061646944
-723.9658802955139,-368.4102114381568,418.345714387686
-768.6671799238273,-638.995987416702,406.81476345133154
-823.522813600975,-684.1541199084295,500.33701620838923
-826.1057547684482,-612.4221829064973,299.9005776692347
-820.6635293397848,-586.0166315714338,229.24953985305893
-747.0777482626586,-411.7063421249867,316.10590772587994
-920.0328348620579,-204.57750608005793,395.23282670432826
-970.434348120918,-280.5086344470334,512.4726588590396
-982.399698164001,-454.3070263545656,536.4278321343171
-899.2969056711518,-377.14713995095167,584.5074515762263
-794.1264346132473,-436.592516302713,519.564785120301
-745.8408324963164,-397.8178073042273,571.1777212401789
-856.2332702808809,-488.30334517903674,738.5875910734044
-943.8544253134354,-479.64289538221516,764.7188387471767
-1022.7345729683431,-459.19554587958174,818.4130156577426
-953.7140613767191,-534.1895550468306,713.7350675307063
-822.132940402686,-602.7053071130305,523.6303936614441
-816.7172275955602,-618.7872515079054,460.9718915225894
-748.3564723937329,-439.9331066164287,618.3773255902883
-639.3488092263924,-509.00562373491465,777.227697531777
-607.5815900434909,-672.2050853247542,727.2340707581081
-597.4333742919346,-569.372823543208,554.356482590895
-634.8253481056223,-425.89875237721344,557.2371808925576
-656.9368744678357,-437.052408314766,588.3405648208105
-593.255596967364,-426.43104424038796,534.3139604248139
-592.3704832944992,-635.7481912783674,491.86215476232974
-462.06094843804976,-698.7279040243101,486.1772368749777
-315.9600883074241,-514.5702151091352,440.64894739793925
-485.42876517465197,-617.5115865254701,462.00588376254893
-541.3194108079722,-693.8240887560993,532.0685453238365
-598.2868767621972,-568.590701207854,640.6825980329675
-786.1318595035002,-654.7159325559697,795.1441113937992
-604.8956575385072,-438.82059622806975,867.7733986631522
-521.5940203841272,-358.744321455339,809.8820698199693
-573.0845905584476,-627.1723779272229,602.0108803719926
-531.4485578663458,-779.2987411603352,501.10792166540057
-569.6899552854442,-866.7547021663871,638.1924510408754
-432.5911498829877,-454.01436780144087,619.2298083443378
-189.1022928319049,-114.8638933784728,684.5273360423795
-271.1119495444418,-307.6065730907089,691.7979126409122
-386.5764557723586,-422.53674802302527,717.9291603146845
-517.9577123686479,-409.0336659307716,814.0302753743634
-690.4712618478278,-391.0275170420073,944.8231557157643
-661.8345714387686,-367.64644399463634,988.3436239694494
-498.7962250105796,-521.2044887907696,834.3195688639852
-374.37249213543873,-420.59520835351526,514.024666935192
-511.95158387420787,-430.8219422534709,547.3204407213473
-705.4427352867698,-410.22979304859456,516.8798723315302
-788.0030387543147,-332.7782678080691,452.5877848194848
-734.2925463843413,-199.95717191905496,641.3260389633565
-793.1913548459464,-310.78400881034815,742.8581625733559
-836.044928696344,-221.74952710660625,710.5188825949739
-849.8967537334361,-179.75455430753624,635.6013521436985
-876.7061126888389,-233.57211687987237,651.0806442567034
-851.3569873504205,-259.22817679839704,832.0792523440728
-783.0135673242138,-281.32134826877683,585.9258768284786
-799.9184227029618,-305.7445712858112,436.62004864046344
-798.7651236660838,-283.2802231139075,354.1443816185956
-772.3646709120852,-229.56565187908205,326.8863475294826
-776.3130120887358,-43.191915689863514,396.8419388884074
-860.9973844279139,40.57828106437979,603.2957228003447
-994.6230364089676,50.65246541887393,746.4710171159368
-948.3350583532604,43.579611794037724,861.0014632927657
-832.1302381547217,-45.98593811342304,898.365904768703
-773.5261276786671,-190.11793018003092,840.8610483702386
-804.5520131747336,-307.77992484691515,636.7128428158444
-871.1160284092939,-347.1532072624189,502.41111898558637
-859.094593974497,-184.92757465597327,482.42162206258007
-745.9570801445958,-27.104464827438527,491.43285423666595
-680.6391581222946,-54.69135739523691,492.50457597650575
-791.0774831364432,-157.77049247194506,550.0665364828968
-952.5954326910822,-187.33410491860118,563.4462329133803
-1046.7794812703626,-131.9839088781592,612.8688186077815
-955.3629424931042,63.991679115702105,542.9336215731163
-894.6194674022221,230.34471506579723,594.3018258018794
-839.7189662117034,346.02438141465234,598.6590731799341
-751.8357441124135,419.5255260461014,674.2955035613589
-611.7960771517288,522.0590109772451,581.8561894224838
-516.2282736714374,474.9032544242938,1015.1550223572782
-491.26766021016357,265.64729035909306,1000.5363707280264
-351.72969362626384,362.2001397011212,672.6323464179919
-184.83580019680525,493.3978473790745,348.9458683648341
-428.45110205829724,321.3982348712354,801.1339244288315
-911.9587218876989,-84.57832185302831,1270.138120561048
-857.0092743189571,-206.45582334436332,1102.619141093034
-713.9012812734217,30.021465026283188,848.8607220610504
-742.2871214940883,133.150464225806,675.403935084866
-667.4266951507395,108.83023254628239,617.7379635247512
-553.756889457664,26.35211820550341,580.4734542376857
-540.4975195403119,10.245190763410545,521.8571071670755
-564.0009585332404,72.11800156016581,497.7479567436383
-663.8627869863818,42.07869150015551,512.0525357792926
-709.4226876660226,23.29745631790673,534.9808548281014
-734.1630424252932,128.33740370055014,577.4265421933077
-656.9878602784846,278.38354585918745,550.6039269271363
-639.8137998195102,457.34985953409176,675.8454722050853
-628.4806738284736,527.7143570944207,766.0444698240481
-572.6430534382282,538.3601943579102,707.975710359807
-509.3706821391607,568.1889330199406,638.1791947301067
-448.2152416982354,599.4789250151683,729.2561680084433
-440.5704292495399,577.22871724799,843.2594209031628
-515.0474422968089,481.92705969928573,936.6562485660243
-687.2968852768275,351.25450587101614,883.4974226672717
-720.4957860227499,285.2462359725289,828.2777503020909
-745.2514365252151,246.39504825806983,788.7922991031596
-710.7513778915329,194.88000489463784,683.5178169915314
-667.873330852024,206.2620772638975,695.8951323846574
-503.27175946933977,113.01820703298274,796.7909530777586
-442.76893740472036,70.76810123742564,884.18165224618
-384.39426307658584,74.3273187072038,900.7428632611546
-311.18781643068735,78.61808058817232,1011.7134801384775
-349.66782744362246,86.6531384315745,1011.1108278566076
-535.046116665732,242.45384509491012,964.6372614501387
-562.1848439579267,315.99679809109125,944.3591848388594
-581.3881396807269,261.0993560492115,846.1411389210384
-543.7004481652757,314.6558712710253,811.2036220319886
-566.9846481724137,291.6215017360669,810.9323775193365
-396.7838150642676,175.61450648284585,966.9336623617647
-350.37653021164215,63.30398250166979,995.4795980278691
-442.55887586484687,48.64586785497597,1005.9225117649759
-463.1010589752873,113.1303758164103,844.4881789398011
-523.1123778252513,147.78033273340031,772.8286417889902
-552.7137197717876,167.63522711629355,803.7158458800917
-519.2864025941581,143.8819576511857,772.8990022076857
-573.5536600164176,131.63618564953376,654.3896233678169
-632.7461467473603,166.49008580911936,606.289609601648
-537.4557060769988,235.9949626019079,674.200669953552
-545.9611590094478,205.95514268379114,768.3653439247859
-643.3144855786636,145.6501455644894,861.3022795755943
-746.5678901561696,181.40853400498642,875.3325549499575
-627.2672115350299,248.9647331147742,747.3795842617001
-642.64555174295,248.09695461752995,637.2624698546396
-694.3186511193935,120.64466458984465,617.2954066883187
-937.8319813595876,158.08558478175524,695.9389801818155
-867.3797882049427,196.44221013292002,720.4121692932857
-714.3152860558907,261.631647912386,789.2042644532028
-546.8442332498867,299.41621246807017,834.7560074031397
-398.0890518168794,390.55742786782446,773.8830283532094
-290.76494011716545,405.0282206461942,755.8187556403054
-464.22172709334995,263.46407794710734,781.1699204111496
-587.4299582426212,149.58115156551935,917.070559263357
-707.8696598736573,204.32359674302643,875.8352750429557
-745.6073174835444,292.6483559625357,769.0077651389619
-716.8788526153172,284.1602382057074,710.5974007433732
-651.3692239449762,225.7264203372202,723.5488163644059
-600.7280773760664,225.47557014882761,740.0070360418697
-739.762304150755,266.08474861446064,831.978300438988
-696.0909178975492,215.87494200364043,879.8978244354597
-514.4233759744664,151.8286060989227,800.418083647321
-540.8156709987611,93.25804428627514,717.8027155042753
-597.6352781021043,78.5031585709697,748.3982807584649
-547.0777482626586,105.26530466571154,756.9149505692566
-554.4839471175173,89.95304206839238,768.6294504239471
-667.7703395145131,91.42714382587327,833.6455364472067
-633.6618519066145,125.77281742491066,810.492879831543
-658.5306909087202,225.92220585011194,739.1402772608384
-647.7145610376633,242.089806406877,825.5887586484681
-577.9965635563624,156.6824552726976,854.3937022326688
-582.6117991363004,67.69702191880002,850.7002901092627
-714.1470328807493,72.44063976995203,833.0153518275865
-724.5359016585685,103.719414886837,860.2264789709026
-732.1593000667915,38.14717564101911,876.0320802720604
-728.8982476176881,44.696303018869855,746.546476115697
-662.8920171516268,128.28029959262338,633.4395537721853
-619.3327996818485,217.07106912146352,649.4909066806708
-642.6169996889867,194.03669958650508,649.2196621680188
-631.7998501017167,152.27626151642,747.6375724635834
-585.1957600199866,139.42885694911106,650.263851570108
-659.0670616367465,220.92967527137202,613.5612059163935
-738.5733150464227,306.87135770115185,635.6278647652359
-788.868777819133,342.96115391086664,732.8680028348111
-781.9061555169197,320.54065353612094,827.2386594810664
-809.6414167937064,231.73356854787318,823.198543845248
-942.804117614068,173.28241550376532,660.4916051862767
-946.8401543850348,160.684841408636,546.6596646153376
-791.3568853787991,151.1117456011992,478.37742756190954
-728.0121142286102,197.40176308933226,518.4165846644879
-695.9318421683247,278.57831165586623,538.2459861420567
-528.2904967547532,392.6468263882162,461.8804586683526
-499.9179128448553,411.10165041069075,387.6757098499488
-616.4286479072874,385.7300913155869,476.2819107442399
-676.4195724329919,332.55698938985284,534.4322475055193
-615.6730381934708,344.43566355483273,617.7185889167046
-656.043603065267,380.0257988201884,668.0140516894149
-791.6322087563032,401.1930679691842,752.2528080435216
-869.9647688048417,402.4677132354066,825.6438233239691
-971.6814610493901,379.68725303747976,784.9500084126588
-898.8094813213485,285.3533061748916,684.320333651145
-737.5821508874081,248.19484737397585,565.1970856510634
-672.7353377555027,198.3144090999475,668.377070661235
-697.1911916913524,124.78267298210909,644.7114967904433
-597.0560792931328,135.5804479613324,642.2499018523146
-513.0804097219744,201.37355773888132,717.8537013149241
-564.5189743694331,152.21507854364134,799.6655330821433
-627.4823716559682,140.7779414988809,763.4401146161024
-592.4490014428985,210.11252568410217,759.8058460330491
-559.8751867355315,206.45072476329838,811.3259879775459
-561.2191727042365,156.9047534071268,893.8903703099428
-498.50050730881605,152.83404628491894,926.2408671666677
-485.87540087593624,110.53111918952956,965.8191125409801
-456.7645424278424,78.96661958976819,923.1898762574376
-427.9636777084938,67.63104627982034,978.6043144192973
-379.3752198763085,-24.822951772521712,1065.9909347228668
-329.68648825032,-121.85914659950137,1074.903254424294
-258.59697246256366,-173.1631087068469,1025.1207089067116
-252.14420826683937,-196.70835606450726,993.904136478818
-278.4559457103088,-166.43502113361853,895.2924801027876
-331.2517526372411,-124.24528253786971,808.0170088664325
-361.23446844743114,-100.62345449261471,827.1111949544444
-324.69905625264494,-88.84042970841216,878.6394946286449
-345.8836605772614,-122.93290777176713,941.2306954974432
-394.8596105703783,-157.02304048783228,979.8585653612602
-416.0727669489582,-79.12773475141869,1018.5241647249572
-375.9041058873316,-1.7771716131400632,1050.266910718747
-349.13859472908695,-18.482050445361057,936.9050593219908
-150.58863118394152,87.64501639193814,864.9538833342682
-95.79907511739484,-96.93554883675874,1039.0806238623793
-295.7921410471466,-311.5579734159984,1091.7489662626892
-477.61467983460204,-275.5803459897111,1061.4328032508554
-529.6477390342268,-221.61288513406723,993.7562776279362
-519.2609096888336,-156.34390948998896,946.5954224939201
-336.28201271586124,56.99928110006986,736.6878597686265
-101.58341533551214,48.36575181127093,842.272335609
-219.5714132756854,-200.370156985311,1045.423258707102
-397.1213411307633,-227.10405694095334,929.041007887505
-368.541754829631,-37.67688252359368,936.6797020389226
-299.95258319609655,12.794787210719258,1016.0289191518001
-397.6791258992623,-48.60028654025585,987.29943456736
-322.7299842453845,11.06677611620686,803.7637725421016
-136.99887321358466,-36.51257055161549,838.1037357303463
-126.12563923460101,-205.70123334675964,964.4251604778391
-242.1642456904244,-247.39844901164008,958.9023774683507
-440.33385508812904,-318.67355315015834,1034.6652526601847
-649.0840399116927,-308.5120810878333,1121.7694115727595
-688.3573901383245,-161.64847322990013,1069.6721102517172
-548.3126245965749,90.50470853961343,835.438197549622
-305.245930057665,150.49583700856053,834.9528126322447
-323.22760575731775,-73.02350955729021,917.8537013149243
-487.2509980472435,-226.79610264463403,884.5191783126756
-437.839629231185,-111.49781015943265,841.6992550973066
-396.00577159376553,-87.79613833470147,932.5121218764818
-420.76346152865665,-68.7186755925826,881.0572417696155
-108.6028358307883,178.9061504183386,723.9883140521994
-149.23954663417175,-18.15706688828499,1147.9047381113837
-568.4346846272683,-251.27744948580812,1103.1595906859122
-492.1537935992414,17.26644674787007,915.0188902428455
-365.22563770502677,72.2847251609877,1120.8108783325602
-443.1778436061245,32.046723396878654,880.3811699204113
-328.7045015372222,129.2867594948326,607.0441995992517
-178.60941300036203,101.04541306154499,609.3885271728878
-174.88133052571473,56.63432466744506,837.2216812061205
-308.74151723575335,-30.894342104592297,882.607210413342
-274.6238521819378,-59.33330953995503,761.5516001896674
-187.1842066352934,-42.87570169221906,947.2623168972076
-366.20252583705957,-144.22662173117223,1137.228309361505
-599.538068555521,-135.2510796245405,1070.9059668694204
-617.328037607134,30.333396215833137,968.0451530339108
-726.0042930052567,29.101782973798397,1166.5757419710096
-745.8755028475576,99.48606302865913,801.0523471317933
-410.7498483172134,338.17358629093525,530.5430498692215
-355.61787154634874,363.2178164816732,782.4598614205668
-514.069534448563,163.503337021307,808.2331887035839
-460.60173453727833,49.974558080486204,707.376117226576
-434.13194108079733,-68.08655351215758,939.7235549346618
-529.3836325350655,-178.06896340748372,1103.5062941983247
-530.7418945307521,-48.101645312109646,926.4356329633463
-494.1463190794002,101.7285209526189,840.1370498590243
-611.6400605711432,110.86762553981228,893.2907771767118
-760.7715172867391,95.87320848607834,816.539796974502
-927.3238057848502,117.24391101956327,896.3896947479518
-1003.7586739610368,144.03593479934534,797.0387441175122
-805.0353586596851,210.59077258798877,627.1081358058053
-818.0836473209507,165.95677422973188,815.4446217617639
-783.3378370799408,91.33241218968763,722.0263800584298
-655.4327930536932,228.5683694227897,605.7399825628528
-653.0140261965096,230.171363309591,786.3031718272806
-580.4336853053795,127.04440354249415,567.9594968720205
-419.00649049369565,188.47618707713644,656.5126725232368
-504.07121698031443,140.84728220136338,879.1024457893369
-581.8204993550296,44.72403929986285,878.262199629843
-669.4528712659268,212.71688089204778,982.3476926371392
-820.3678116380212,356.6100554215762,932.506003579204
-786.932336730688,327.9998776340545,791.8167773908522
-606.192736561415,306.2014041492253,676.8590701207854
-448.9351613445978,200.52617356589664,679.5715152473067
-450.4137498534158,93.01830900460402,770.1783993514606
-580.1838548332,45.13447507558647,925.3802266829143
-674.1863939265703,151.7317330586898,1080.5932708927107
-669.5171133873444,306.38291363513537,1072.2927809190703
-607.90993866407,370.55059576919746,947.4152743291543
-556.8782407855894,303.75000637322637,877.761518969271
-500.0555745336074,183.33885679615366,875.0939413561207
-502.9719629027243,136.26467754024057,800.6414014979632
-575.9061453197576,112.73268649334891,701.5127490019528
-709.4593974496898,82.21309009702601,632.897064746881
-743.8676816242041,63.239944323494775,644.219993575788
-711.023642120398,156.19299149046822,683.6442618019406
-691.6765664115677,264.1972539042385,663.946403715846
-618.2712751041387,290.7129345903035,664.956942482907
-563.4503117782322,336.85815237619374,681.3203285525639
-462.57182626075166,370.018303906023,584.6043246164593
-559.6447308713986,401.47247021154016,555.5719843167647
-637.2930613410289,325.6810429657427,664.5531348625678
-513.607603004084,248.58131981869448,804.027879041263
-515.825485767311,287.6395099243881,843.1095226198549
-559.115498156863,372.70321669479387,799.0027175437077
-524.5715917260227,430.3294193226026,783.6274364844264
-609.376290578332,465.7339662371962,774.3888075948464
-518.2840215568008,480.1180831374629,732.5335359169544
-568.9414835851184,413.7151830645532,618.1845992260354
-1087.9046361397623,460.5283149699439,637.7254210153314
-1219.3970418032663,497.17487623194467,725.89926223532
-915.782657686366,528.3812514977083,589.055385886108
-517.2490096006281,415.59859890992345,442.34473546012157
-135.3153217459581,184.91125919656562,507.71364329307164
-152.37007540801397,-3.6183916016172706,610.1339397245747
-549.3925040661185,-30.48156098157883,718.0923149087611
-724.0372604304223,149.1906002559488,754.1158295646322
-654.2621588411946,336.99581406494576,617.1659027292706
-472.168375541087,359.01454625177814,643.3664911055254
-267.59698775830685,263.84035322969623,564.335425451097
-322.73304339402347,184.8510959399999,767.8565055345099
-704.460748573672,205.17913864571491,973.9992760014889
-890.9851988191687,391.58734124293215,888.159565193007
-831.4521268730913,547.9210535707913,684.4437193129154
-660.4997629159806,526.6569113815626,620.3576144758914
-436.7230399779742,351.21473693871,667.4715626641106
-276.84887295865565,327.2952537308867,728.8166703206498
-255.33795944588624,369.19335348972385,674.0528111026701
-86.79416518382935,321.28912523644675,657.1163445213198
-126.77927732711987,160.0189667215614,759.1012221298813
-464.497050470854,-40.69911743561767,947.0257427357968
-767.203887158204,50.90596686942025,973.579152921742
-1032.391285505244,288.7122513804409,941.332667118741
-642.0683923664045,459.64931959435694,499.19595376606696
-81.29646719318015,336.12293698663666,590.4299633412022
161.94215149923778,-24.790830711812905,681.6323617137351
135.41729336725592,-218.56189422483726,623.0190737917638
-94.01793680818629,-216.33177486705455,670.5949534244621
-402.4136682761188,-147.33165759969003,759.9343302758843
-753.0543049869223,33.02932193970418,718.7520712985577
-1100.0494562363297,119.6269878092927,579.8249147262318
-1181.5961617881746,295.8747380603978,746.7677545339133
-1347.2184691000496,178.45033727113747,882.0443270637783
-1251.7628344031857,136.8734481193884,644.2128555622971
-691.390026155721,370.40987493180654,428.1156154242275
-743.2272998424539,373.34869705760894,709.9009345699093
-973.7963524751063,188.9269016432727,652.1248336587928
-844.824685290084,226.0211183227708,587.2137784054698
-942.6939882630664,111.52024391611815,676.4001978249454
-1217.4799753228676,-157.99483003880025,582.9268914461106
-682.0779776988065,63.67016259375017,315.4757231062596
-344.1735964880974,294.5807181861289,904.5260104113025
-460.1795720251054,-32.88880504555583,958.8381353469332
-775.0832343358844,-24.446778461554153,761.7861349186522
-666.1194189657019,178.67263540556667,641.0700901938991
-432.12310014123074,238.38007882406328,601.203265131314
-417.64312991694413,169.509465515747,699.7680145615476
-410.3817307643283,208.95310834994623,790.0098402614553
-391.1957702171486,197.19883956294964,790.3361494496082
-472.10005455481746,206.54861751974428,898.9828330775547
-572.2168120612034,223.78386095149725,1007.3144243956908
-674.5963198441874,228.8671462731922,1052.856989899711
-769.8520901633076,196.9938766041411,867.0820310707531
-815.5109033156074,99.95329699744563,792.1583823221998
-775.6838471853284,-13.011680849219664,742.115809170308
-559.5080888988596,-18.44411700223828,757.1464261496027
-361.2630205013945,-27.254465082367577,811.1648728158955
-356.0155608694101,-177.548908138865,882.3940897248298
-577.8221920839432,-380.07882406326326,970.0213630546621
-824.0316519912509,-513.2374460187731,1006.0285622511255
-939.7072394752541,-567.4261852926331,902.4386513233368
-883.0171363309591,-480.32406581248443,742.0841979677057
-693.1368000285521,-350.2113361851397,748.4145962178726
-416.9272891354337,-174.02069004196136,791.2039279468524
-286.2618733206549,-244.63501807446988,797.323244940933
-452.57554822492904,-472.35804275670085,713.1834010594853
-543.8870562322506,-286.8512692917561,1040.8549300729608
-152.44553440777435,20.777941498880864,1602.9836896391737
255.09628670341047,-94.60345785767822,1605.553374495878
225.3929731355764,-475.539557341192,1382.684198987422
-272.582380323556,-686.3189774285817,1171.8578719542354
-589.6692550463207,-601.1859299556934,896.0215771950667
-731.6708560007751,-484.2071451515044,442.16832455527634
-1090.5049124828563,-339.66135224567006,283.2455527626662
-1255.301249662219,20.127464526622244,566.0607852834557
-1163.8836911687479,-54.22932397913661,551.9825832470824
-1126.235768585603,59.11529421362035,281.3651960659349
-723.2010931357804,482.3961291572556,376.2406122376143
-373.022387869456,331.9421005134272,731.2854032722694
-564.3731549509772,-196.19237966074044,1209.006133593021
-632.7930536931573,-378.79908021597595,1495.0875171439789
-436.0235146558713,-306.87849571464267,1489.9481474305703
-196.99489632035406,-143.63008774658016,1351.6950232750225
-122.83501501532125,-138.22763125022308,1156.5519315974366
-276.05145488010686,-385.9605471797199,1009.8830895361822
-414.463654764879,-578.9020715534867,945.6664610238972
-419.2879321684776,-703.6939219815126,832.2016182896301
-413.3001585658712,-657.8413627487471,773.2671197605707
-430.2519208904163,-541.2551686865546,815.7903055579634
-588.271224118328,-543.9033716916583,813.4327216735584
-648.9198656014032,-419.59384703237095,816.0289191518001
-581.6971136932593,-234.29815482351268,828.1849561267101
-506.8020169986694,-67.38437692790097,954.3320094017837
-483.36282012715867,-74.21035725757523,1076.371645770982
-500.2483008978602,-109.21772470721399,1040.9161130457396
-545.4982078487558,-167.53733435984768,969.78784804189
-569.2922659623827,-211.00477737045782,847.91544513162
-648.1336644011973,-230.16320557988715,799.7032625820235
-655.0503994738265,-156.52949784075093,807.2002161798373
-707.2466132675277,-106.46551064838657,735.6069605828699
-764.2497692892068,-75.91950360214753,640.4592801823253
-759.303125940051,-210.84162277638137,699.8577495882897
-660.619069712899,-322.9920513121198,791.9799319849287
-598.1451362085933,-323.26227610855904,816.4643379747416
-640.9252904916563,-256.38520799661455,901.9400100951906
-554.4146064150348,-120.44174106346206,1036.2152213039112
-317.8384055717294,-54.35505498819679,847.2291761202857
-268.3719720801701,-8.556622292016133,820.3433384489098
-193.163822508196,-93.58404755956418,896.3244329103211
-349.2986901745245,-330.4635120046092,663.2315826505485
-734.9716773821846,-450.2781275970898,339.9652276771375
-989.4846864117718,-210.79165668194543,504.1028281829167
-730.9234040166623,-120.00428280809453,499.8210398046225
-250.821636338607,-155.0162389806917,467.88352801415374
110.36490544681418,-53.80206288589886,421.9330760249423
321.2728097770391,-106.77550437713185,739.2402094497102
183.26543722881925,-430.79644934814644,1158.2038718624608
-2739.1107054906624,-1672.0694630684284,2555.021337561757
-5556.505024651639,199.90210724355413,450.0058633682247
-1164.7606471119088,3720.49578602275,-473.31657599690016
1483.9522160982601,1317.483544329613,-347.04205819520433
528.5066765919046,-2113.0457393707334,686.3189774285817
-1951.9815635308694,-3342.60935181739,2050.475952542408
-1470.1758500609283,-299.0154639963698,2322.1487460039875
-327.91830033701626,777.2878607883426,385.09174896626274
-315.919299658905,1161.6301183380667,540.9594509847909
-794.0601530594037,118.78878108222483,1184.8796479939633
-828.3215980992492,-612.8535228645868,680.5565611090435
-414.17711450903215,-643.3624122406735,1522.8034038127191
166.63896437621412,-610.4979784126078,1382.2661153401011
270.0565432640097,-356.69673129967936,868.8288049435844
9.951512494072901,-595.6203188652598,747.9995717191906
-319.8166550249066,-760.7072751653216,602.3310712628677
-483.36282012715867,-685.5113621879032,646.7233968786488
-523.3346759596805,-452.73972253521856,1112.367628089103
-293.01647351542067,-147.78849046310415,804.7447395389863
-351.3401620329063,-84.8103072914808,442.59354621608816
-572.6318365598854,-212.96263249937545,196.38510602499326
-687.553853762498,-211.8980487730265,214.28316499518186
-608.4493685407352,-129.8863526280636,368.2511357089322
-291.46038657441636,30.12537410838564,368.5356365323531
-358.7371834418482,-162.90782275292787,356.40509246276764
-641.7910295564745,-268.31180882360445,434.9375168890498
-797.3018309004605,-262.60751632820586,503.2319905370336
-686.3301943069245,-37.8059785961567,213.71416334834015
-626.850147603922,72.17092483161937,18.00288579688273
-662.4137702477401,31.605594163144403,-221.7943946199773
-968.1797555740238,-73.51725614761412,-131.82891201378658
-1050.6034170690298,23.278489596345338,-196.1842219310366
-1275.267293112327,107.05490661948781,749.925815645506
-734.9176324228969,97.36994794348733,4451.1224526214355
890.7119148740907,-344.1154726639577,4104.123222507177
1587.5451861746878,-837.4980242998375,-247.95419434771307
-126.58961011150598,-44.23641100681681,-1304.5535427490531
-972.2994090744547,704.4332162359216,-966.5349533224904
-1283.537191599578,-210.69784279035147,688.0800273283946
-1826.8725813606077,-1045.9127224893314,2853.0741894530756
-760.1484706806096,130.03727062758438,1605.278051118374
-188.4639504825807,978.0903774479563,33.287208169966306
-792.6090968883361,947.3459336266719,389.33070926361194
-1208.1903606226388,7.531481188785162,927.8744525398582
-1371.4367291582753,-597.8902071553487,1009.8881881172471
-1025.3552436356963,-212.6913879867233,691.9539292214978
-1077.0242641472878,-56.2304150754845,835.8634192104339
-1313.8737489356713,-103.07597395644792,1013.0064802965337
-1178.9550967965617,-188.07034002437126,1144.8251951481905
-593.5227626151643,-85.5305328527071,1011.9633106106572
-189.75287177578483,-169.96629837916112,1010.4469926019591
-256.20063936206554,-541.4356584562516,947.9108564086616
-543.5067020848098,-748.3156837452138,924.6817210770243
-657.3417018043879,-573.1937001932363,938.0848709804062
-649.2859437218623,-271.93689996074096,886.169079145274
-712.8448552767766,-122.32107804398036,688.4807758000949
-830.5659934840136,-177.02171485675538,525.9930761269139
-921.3656039524202,-336.21675087823064,383.8833852538839
-820.4911972997916,-491.29417283170096,436.9371803826995
-772.837819234907,-575.2627043893685,606.6934172219871
-740.3833113244584,-512.3064451163242,752.1783687599742
-658.4572713413858,-253.93177078818965,728.9859432120041
-479.1340569919392,115.96008830742407,714.7252119735078
-360.7042160166826,232.62989909908075,884.8648621088752
-431.5989660077601,79.30118847924624,982.4353882314552
-581.4676775453393,-247.69620614582962,1059.791060147961
-640.3216184935734,-422.2950752805495,953.528473025957
-597.8718522635152,-381.1219937491397,836.2876211550328
-564.337464883523,-292.8543386375572,785.4721031137035
-721.1290297910092,-314.5049532715046,822.4419144152184
-863.7332830273336,-375.20050170037683,832.2852350190943
-805.6859376035651,-360.1382735184799,837.0279351256546
-553.6335037958937,-176.3048543590319,848.0327124961124
-386.7171766097496,-95.18265666664968,979.771889483157
-356.68755385376255,-164.13862022199226,1082.4899430488497
-333.0301377126746,-159.32453998052344,1208.4248953516237
-295.76664814182215,-154.0862577944558,1393.4218107100794
-283.25167105994404,-153.9353397949351,1421.076514406041
-239.43956396934738,-35.183370467998756,1327.1402568665142
-223.71859911386665,2.397373211035369,1217.3576093773104
-231.96300469579316,55.39210637679535,1079.6959206252902
-295.40566860242797,-185.01425053407638,965.7446732574326
-353.2113412837208,-468.48108171495875,801.0003416049315
-354.83472949478164,-705.4600704623904,691.8866279514413
-313.2547811943936,-768.7773092748289,571.0594341594734
-249.54903050481053,-619.1217184257622,489.0915858116687
-181.04551503316628,-387.1617728786079,528.5811158754519
-150.93737412877996,-270.7264968159362,595.3582517985245
-247.17309172857196,-288.27071426022144,711.715009712797
-343.3476263555853,-187.07713643293073,694.2340146737164
-356.9842912717391,-17.584598206319182,599.266824042869
-396.2831344036955,28.863985152931942,567.1253690098047
-488.5011701243545,-4.116064099361148,691.4430513987958
-572.7582813702948,-45.8121784707316,713.8686503546064
-598.3704934916614,-6.642992255255363,744.74973614843
-519.611692066098,78.147481555883,777.041089464802
-544.2949427174418,55.7590002702248,847.3892715657234
-625.5795812025514,-8.362692662631991,960.2025156398976
-639.7852477655468,21.95805907216022,877.4708998485722
-532.598797754585,75.01338377529534,847.5004206329379
-447.3056548362591,109.24525704496439,856.5116528070239
-358.1029199573759,93.25743245654735,877.52494480786
-419.8110465857352,28.067790733838777,888.5939642997356
-491.1636491564398,16.51838293402946,832.6197019369511
-508.46721357446233,5.574084932163379,891.2666404939506
-511.7476406316123,-48.31884486547394,918.8713780954761
-502.97604176757613,-71.28285398173689,954.402369820479
-547.2194888162625,-44.387532949580134,894.7795628476596
-553.2072624188689,-90.23968429586047,953.713041660506
-537.0753519295581,-110.48421224373259,867.6816242039841
-488.53482075938274,-99.67562827265174,821.2773984999975
-488.3706464490933,-134.39145885700012,833.1703486919591
-513.3740879913121,-111.5141256188403,773.8493777181811
-592.3888381863328,-52.481734333335034,815.6373481260166
-625.8977326610005,-1.715325824822952,838.5116222155375
-647.6278851595603,2.6739814309677623,877.4178746054974
-629.9969918371718,-17.194658726476423,834.5785767820815
-508.8128973706618,-30.266094945776594,777.5682827469116
-412.1132088939649,-62.81043985458847,684.9352225275707
-384.4024208062896,-74.4197049960996,708.9373027486452
-472.27646545966263,-95.72076091223813,845.0551411542169
-598.7936757200472,-132.19906899909756,980.6447665614661
-685.6153732416269,-93.43873799921484,912.4950926157252
-632.342339127021,-21.6449042231547,767.8391703588892
-536.4696404990492,8.39000066281554,749.5515797953431
-479.2421469105149,81.17573279356357,718.7663473255393
-511.3866610922181,74.35597273278847,792.8752428199233
-645.3100702074613,3.2554440099320363,944.1695176232456
-837.1095124226928,-64.55170725986959,980.7712113718754
-922.6127168808921,-115.28095730958076,857.9983990455457
-720.6976898329197,-59.51084213263449,782.3425940560743
-581.1852161543444,51.610896687451884,784.0577567263032
-512.9702803709729,139.61138615123411,733.7622939535928
-466.98107916566823,109.29216399076138,844.4422917102172
-403.0785232469804,-42.231037102374415,830.2121519581102
-439.23154186189987,-57.78017977596835,790.4768702869992
-441.63399325967583,26.5792090061336,703.815268210857
-488.845834204341,-2.2095414846048347,903.3604747798689
-557.3513891084112,-118.31257361076413,839.9320869002157
-572.4931551549204,-118.1249458275762,847.5544655922257
-590.6165714081772,-52.037138064476665,866.6823023152658
-626.4697934564812,-44.33970825919147,830.7984887805724
-576.394589385774,-14.832588090734351,713.7095746253818
-491.4909780608058,28.022005475876067,820.8022107447498
-490.21021449730546,55.37670866197938,852.1258533750059
-532.0257172428913,79.01893103149395,863.1938531506682
-637.4602947999573,75.6116512774495,822.3797117262267
-722.663702691541,28.8199334125313,707.4474973614844
-703.1504132399954,5.5613792681496745,719.5912977418385
-680.1466351914263,-24.54528304772782,833.8515191222283
-575.0577414305599,-18.359276613318517,752.9880234330786
-490.0919274166,8.067127918300338,754.1719139563461
-428.4001162476484,-12.705867956947584,649.201307276185
-468.4973971743664,-34.97524638892997,719.3190335129734
-545.301402619651,-87.38376509817319,847.8573213074803
-618.9524455344078,-110.09875951522693,838.9817113897204
-568.9139512473679,-40.985759663085766,823.7991566946919
-507.5413112530784,40.563597150912905,910.7860482427742
-421.6465357690955,24.741884333589965,947.4468855317567
-442.9840975256587,-76.03819856933816,908.2214619671347
-487.76901388343634,-223.06394130513482,868.800252889621
-516.7422106427782,-249.3940336404379,927.3248255010632
-591.4659950135878,-225.03913160967306,988.916704481143
-668.6738080792117,-108.62221043883488,959.8955810597913
-650.9909092299614,14.412465010987443,889.1017829737985
-578.0679436912708,62.982058093232666,760.5176079497077
-517.857780179776,50.55773378268829,722.2150275578307
-501.78705266324386,-49.80599899048095,762.0410639718967
-496.78738407101304,-99.75292276159546,805.455481739432
-568.3673833572118,-60.15836192787548,843.4959950645737
-640.6030601683552,-16.866004191033635,861.8906558304826
-597.1356171577451,46.736857132659985,658.2472098015123
-597.2253521844871,39.986947632473886,768.1573218173384
-573.5587585974824,-17.98300133072966,796.1801430661848
-563.6695507640225,-17.495271066062315,859.1200868798215
-536.0332019598947,12.36130584858234,761.3180851768954
-537.5434016713149,113.38836401829373,808.0506595014608
-488.477716651456,173.53734455700982,655.5225280804353
-522.0406560854115,177.94761717813932,686.401574441833
-574.9792232821607,109.10351649136045,729.0114361173287
-690.2815946322139,36.69550764022373,751.076055533745
-782.4822951772524,-25.306297257473247,659.6381027160143
-802.0129198044185,-88.01038071104813,553.5927151473745
-905.017513625958,-210.52755018278413,607.4072185710717
-970.9064767275269,-264.18399759346977,606.6016427628192
-982.1131579081543,-233.11018543539333,610.2532465214931
-978.5961566895934,-178.1617575828647,700.3869823028252
-881.8801527534888,-86.12441557514545,693.6762299052175
-768.3051806682201,37.05118465531043,722.434266543621
-711.5233030647572,187.95919095715666,773.7953327588932
-576.2630459942999,236.22439874982794,665.7696563046505
-502.522268052801,284.99844493277527,560.7450046652018
-526.9250967455757,296.4417002748135,521.094359439768
-642.0653332177656,305.1745499227565,531.1140909484891
-781.6430687339714,287.7180280727874,619.3491151412562
-865.7309070885573,475.90971432650304,821.5343669856679
-773.2457057200983,397.95750842540525,838.8807594846356
-621.6363386069658,36.97633748527785,842.370228365446
-565.1399815431366,-149.16918621547626,843.8437182931991
-621.0591792304202,-171.4214334150806,901.9512269735334
-596.5329648758751,34.42959624336548,1011.513615760734
-624.0632631938532,155.2140639260094,1081.3376637281847
-746.0396771578471,210.5673191150903,1106.7999775662433
-787.1199645138759,280.73705087874043,1129.4886633050023
-706.7163608367791,322.4628185975843,1107.003920808839
-610.4684066424314,142.0566656299552,920.6752560762342
-612.199884772068,-129.7079022907925,815.6016580585624
-559.0043490896484,-223.99494220758365,702.9026222002417
-404.54181601260376,-82.2135999551325,685.1146925810548
-345.98665191477215,11.211065960343237,799.4901418935111
-427.92390877618766,-145.76027491549104,912.6062416829398
-431.3216031978301,-171.6529089954266,1042.1601668255726
-474.24349803449707,-177.1909877481097,1249.5398530588939
-505.54470690806755,-141.3173713755462,1339.213696828173
-478.0521380899696,-125.94820861354287,1351.3483197626103
-488.5939642997355,-180.6672003181515,1280.7329720138887
-525.7289696277527,-219.63361596467706,1217.5105668092572
-547.6854991255934,-298.3934371064533,1044.7604431686661
-575.4146421051023,-334.1283720740518,918.8825949738189
-586.5315882589875,-276.99571209332447,808.6339371752842
-495.74217495271074,-112.07293010355218,727.0199303533827
-407.05949534244627,-47.091718374776306,716.3557381980596
-433.8494796898023,-130.80307750353077,849.6734358827939
-446.1441980696773,-254.47833867834584,853.8308188831049
-463.3825006500691,-359.0879658191126,822.5285902933215
-496.00934060051094,-382.4731177313354,775.0240907955317
-523.2327043383827,-243.29817011925587,738.8251849510282
-530.6501200715842,-137.8982629134312,836.4732095057946
-538.7650216944625,-157.25145691953932,828.5683694227897
-572.2117134801385,-122.91251344750758,745.53389791621
-604.7855281875055,-61.322673899853676,682.0443270637783
-651.5466545660344,-18.614817496290783,657.6527152493462
-663.9249896753735,0.5786440833516033,629.9296905671152
-649.8488270714261,42.60517098091602,582.9034379732121
-592.8925779955439,76.70366536992756,552.2446503138178
-604.6264524582809,135.67426185292635,646.060581340213
-593.4758556693673,154.79190141383654,630.4650415789287
-707.925744265371,158.83915506314594,550.243967103955
-833.4732044072135,190.12608790973474,477.61467983460204
-905.7353938398944,229.54933641967446,496.02259691127966
-872.5619859992966,233.76178409548623,563.223934778951
-786.4867207456166,307.8054177522396,697.7010497978414
-688.1891369631833,392.5152829967421,738.1338173586292
-663.4865117037929,385.01017166922446,785.6240408294373
-627.7393401416386,265.2903896845508,841.5085681654797
-568.6998108426426,183.05843483758474,783.8007882406328
-511.4070554164776,162.17770594443567,663.066388624046
-545.3789010518374,147.1766607353174,686.1558228345052
-540.1548948927514,181.25149770818786,607.626457556862
-602.1923898579026,204.80286336312608,590.9194271234317
-633.1836050027279,181.82865708473335,590.5329546787129
-667.7009988120307,205.3086426047631,589.9364206941209
-629.80120632428,178.81539567538354,688.709192231802
-589.6315255464405,198.23691066776118,732.4162685524619
-605.1271331188531,206.0591537375149,728.2333926468265
-638.4636955535275,217.25359832358654,653.1282344123631
-660.2203606736246,198.46532709946825,696.0358532220483
-634.9099845512995,213.2869022551024,645.3457602749156
-573.9656253664606,286.0089836998364,610.6917244930736
-608.5941682429781,371.2521605237263,594.1865978698129
-630.0959043098306,324.4971524424753,539.0780745718467
-625.6407641753301,216.48473229900122,578.755232418818
-637.8539052581667,162.34391968715107,570.9054570113138
-682.7336552237514,240.28082984505414,593.5176640340994
-715.1453350532548,325.0834892649376,529.9526341819072
-742.1198880351599,363.9102037902852,521.5685274788027
-694.8682781581887,294.29213849785606,565.6814508522278
-695.5922766694031,222.7274349548521,781.7664543957417
-686.1405270913106,257.8627767892196,824.9606134612737
-751.677688099402,293.1184451367185,816.0105642599666
-758.8666874008964,289.44644705378494,831.6132420347419
-742.3238312777554,192.06660786303172,773.3201450036456
-734.5882640861049,118.6378630827041,789.3827147904739
-727.2911748660349,157.0944206227407,769.7389016636671
-702.472301958365,198.82630663886243,699.3264774413282
-691.892746248719,175.31980849729524,676.0167845288657
-727.4828815140747,207.25120199048607,753.8680385248787
-742.624647560584,226.74817598262408,757.5002676755059
-806.4884542631786,222.80799253567736,693.7629057833205
-791.1835336225929,168.59579978891875,702.0246465408677
-701.4903152452673,202.9347432609505,726.7996716513795
-685.288044337261,315.00869308071566,726.6650691112665
-666.5385223292359,260.6639372262699,723.2041522844193
-625.6754345265713,159.54377896631368,700.6092804372544
-580.9415039794426,125.04779919748334,775.9642691438974
-549.8676918213662,121.00972299409077,784.292291455288
-565.2276771374527,128.86663641508568,784.0353229696177
-595.2552604610138,101.27525709595021,701.2618988135603
-696.2907822752929,97.97494557264714,676.2115503255445
-672.1082122845213,171.43876859070124,692.0253093564062
-701.0273640845753,210.77432150632484,738.5539404383761
-780.7967042771998,214.554409507834,658.8539409482341
-877.0232444310749,192.15430345734785,665.3372966303479
-844.8318233035747,172.94896830212156,709.0555898293505
-742.3258707101814,269.3039926988319,757.361586270541
-624.8882136101523,329.66507420984743,688.2737734088604
-653.3413551008755,280.29449404230803,766.506401268527
-641.587086313879,133.50124660307037,802.499324438009
-609.2508654841358,90.1643272677214,744.2602723662006
-499.9199522772813,145.62669209159094,553.4050873641867
-452.56331163037333,245.95860971891526,565.5499074607537
-460.8230129554945,212.1193271912427,667.5796525826863
-541.4142444157791,46.76500130013818,710.101818663866
-672.4579749455728,-33.32973033604748,724.1076208491178
-736.2687564050925,28.39613935441767,648.3753371436729
-607.254261139125,213.24917275522225,665.3831838599318
-494.0606629175102,301.5729122585185,690.3285015780109
-551.6797275318279,276.0280014072084,811.2148389103314
-553.1409808650253,178.11689006949368,678.0857887249979
-589.5948157627734,158.63113295569843,630.5099090922996
-609.380369443184,143.20180693712942,618.4915338061419
-670.7897192211408,120.56818587387131,629.4218718930522
-711.1511066470202,112.68374011512599,577.8242315163691
-698.0293984184202,193.09040294086157,495.3322490350936
-646.1911050154742,305.13580070666336,523.2031325682063
-592.7426797122362,317.17559003329376,618.1540077396462
-649.5072221400785,252.22986442872948,660.6935089964463
-715.0708957697074,283.61774918040317,651.7567161059078
-675.7475794486396,414.8225948718472,647.9786675368246
-611.8572601245074,461.24925433251934,703.7234937516889
-560.4992530578741,440.8732849647943,633.9188203922848
-577.7946597461927,425.0727822447014,582.6923567171257
-596.7970713750364,430.14689012047955,700.1289941009418
-602.6206706673534,330.2687462079304,774.9465923633454
-760.318763288177,224.42628216567334,914.2286101777876
-940.957411552365,112.95192547913916,837.3307908409091
-973.668887948484,232.43615301861496,757.9448639443643
-741.8935110358788,485.6785956468315,725.2405255617363
-511.3163006735227,607.3164638281166,685.1136728648419
-447.94195775315734,560.9285535835377,745.0882819311387
-467.19623928660656,363.12706173871817,674.8247362758946
-517.5243329781322,130.74495367939105,604.211427959599
-504.7258747890463,29.56034935477457,549.7993708350966
-487.1857362096129,60.87002187291277,604.901775835785
-569.0077651389619,49.683531073302305,580.1654999413663
-779.1753554985648,51.764771863990255,628.0309789785504
-883.163975465628,40.99616076845814,630.4344500925394
-898.8349742266729,184.93777181810304,704.2812785201879
-852.5500553196046,313.0304436275385,790.8847567721904
-796.0853094583779,354.7296987248449,744.4937873789725
-750.2990317794558,360.9856576914645,619.5714132756855
-703.8662540215059,329.7813218581269,632.1455338979163
-624.7780842591508,325.83094124905045,692.2129371395941
-682.4073460355984,267.3961036643502,597.3558758597483
-807.1900190177074,233.22133450260793,560.2800140720838
-824.7118027053072,249.2553522354729,607.0594953424462
-797.7484666017449,331.1416232862395,701.3781464618397
-745.492089551478,419.1237578581881,635.1455389964974
-737.5770523063433,474.17925591307943,741.0430677142552
-630.7148720511083,422.88243181922473,723.1939551222896
-556.898635109849,410.88139170868754,743.962515232011
-524.5624142801058,367.5444723733385,685.7244828764155
-548.7184716493401,317.25920676275797,665.9083377096155
-641.5809680166011,225.19208904161974,672.677213931363
-776.7147802766491,144.0716248667996,568.8874386258304
-871.7880213936462,105.5171745703171,500.87440665262864
-804.9170715789796,201.8997313047779,521.1738973043803
-651.1438666619081,271.1292847200624,609.5853324019926
-571.2572591047913,277.96750164429244,579.3619635655398
-563.2218953465251,208.47690087848554,603.2641115977425
-555.4220860334569,80.00122365945559,521.3982348712354
-595.6458117705843,-5.086793145467618,489.68506064762187
-597.7443877368929,63.02825123768056,748.4492665691139
-628.8569491110625,261.1483024274345,810.1084468192503
-775.3503999836846,506.4359388782103,422.4735256178206
-1074.811479965126,575.6838471853284,547.2674154782725
-932.8108987268845,363.03018869848523,687.4732961816727
-818.3049257391668,289.4821371212392,783.6274364844264
-874.755395573412,392.5458744831314,578.3544839471175
-915.0719154859203,455.1829625815136,624.6343042731208
-768.8680640177839,466.57727154532904,728.8258477665667
-569.5522935966922,526.5539200440518,688.4379477191499
-572.8174249106474,540.1865060953537,480.3383418394662
-773.2283705444776,349.6270387951034,627.1152738192961
-1062.0344358165123,465.7737351695024,382.99521243238013
-1755.1355457776103,448.0887968878262,392.2960440109518
-1724.4930735776236,-23.346606639372265,484.6119724880566
-511.8118827530299,26.03753575379972,1012.8106947836419
-463.86584613502066,674.9073332891456,928.9227208067996
-1170.9299302004254,626.6869930098454,541.7303564418023
-1060.1377636603734,-401.6835514676266,727.3921267711197
-567.8799590074083,-294.6153885373701,1016.9772552298697
-538.6202219922196,353.5529462150684,838.6207318503261
-523.7537793232144,334.85950859875703,493.5395879326784
-769.5390372859234,-150.6222818189698,503.2697200369138
-672.8954332009403,-360.7052357328956,890.0389021735253
-446.1013699887322,27.574961888106543,1241.4127148414598
-660.5303544023699,467.9712236084698,1409.4007637674438
-793.4503627640429,445.2111577348025,912.9865958303806
-934.5454360051598,245.74141016555095,550.4815609815789
-864.5602728760588,-26.964253848154065,403.3140776921783
-692.2985933014843,20.741741573320148,696.1551600189669
-637.6458831507192,217.45856128239515,676.6877577970052
-705.0481051123473,285.01170124354394,385.0275068448451
-947.1776804515304,158.60665976658697,315.1086252695875
-850.2016488811165,163.00571550937377,889.541280661592
-709.5175212738295,228.95076300265637,601.0044204697833
-994.6464898818659,369.3157194352812,902.3805274991971
-1050.3280936915257,234.00651598660096,434.9721872402911
-1376.7902392764095,-45.3595264437907,-369.5971611100631
-1188.0101767678057,-47.57445203000006,410.31239006184586
-865.2353250090501,255.90594137651496,881.1530950936354
-916.9961199798098,252.88554195367433,499.6996935752781
-958.7708340768764,139.50227651644548,762.4061223761429
-610.3093309132068,-22.969107697327836,1070.365517276542
-391.2977418384464,-50.86150724253441,1171.8578719542354
-375.378952037648,86.1818255979361,936.1586270540911
-655.1013852844753,177.57440104418941,959.1328333324836
-622.6193450362765,110.10589752871776,798.9374557060771
-564.3639775050603,160.97444081312173,913.4526061397114
-598.1471756410192,269.6007301168085,916.5046167651544
-762.8099299964821,167.74127760244326,631.8090275476335
-959.8609107085499,-14.37473551110726,429.3168411231155
-750.7201745754157,23.89837508221462,565.7569098519883
-655.3298017161825,152.35274023239333,735.51110725885
-656.2495857402885,189.744714046081,590.160758260976
-744.1144529477448,48.60293780240959,306.74797203938147
-802.6145523700756,19.97185583252181,513.9726614083302
-513.4515864234984,84.42740385350757,620.1271586117584
-550.1256800232496,227.08570204911976,532.7548143351706
-837.4908862863466,205.56255194179462,469.65375535988346
-955.6821136677664,204.93236732217426,726.9108207185941
-507.5555872800601,239.38653872627248,647.1649339988682
-452.26657421239673,519.3557432966406,851.1285709187134
-484.5854598665192,514.3611732854747,697.6011176089695
-549.09168778329,335.4784763400346,540.2538073654102
-760.2106733696013,163.5349482239093,596.541122605579
-866.3682297216685,69.25351674628952,775.8011145498209
-841.1853181259656,40.566248413066646,619.2909913171165
-840.7896682353302,277.2384045520132,693.0654198936436
-658.5979921787767,435.4443158468998,805.1505865917517
-840.0901429132273,324.75310121193274,814.5788826969456
-934.8686860446738,44.841306664355315,582.5516358797347
-1101.0997639356967,20.94629664564352,792.0717064440967
-783.5846084034814,268.04566289201716,1011.8480826785908
-546.369045494639,624.9310416910974,892.5341477466822
-564.8197906522615,606.8484140863599,586.1981410573438
-725.9053805325979,373.7086568807901,765.1042914756824
-650.9317656896087,191.07850285265613,743.2956208287235
-705.8710160962205,135.18683750312292,503.259522874784
-596.675725145692,228.36136703155512,634.0931918647041
-716.0875528340464,241.8777054345776,742.1484400891233
-1133.9652174799755,130.79899863867885,932.4947867008613
-1377.8915327864256,-4.774545843891645,701.6708050149643
-1062.9725747324521,150.85579683174174,643.0687339713359
-722.5158438406593,519.4424191747437,1055.0901684061328
-479.11672181631855,602.5645862756395,614.968414290303
-561.8534361887088,397.05709900934573,492.7595050297503
-578.1882702044022,91.85430294748973,528.8656166988727
-676.0014887856711,-130.76636771986358,641.9664207451067
-750.197060158158,-211.5462466795491,629.3535509067827
-708.8383902759863,2.2652281869955595,778.387114865933
-376.5740594392581,258.6714117461111,755.0264361428216
-370.3507313914538,363.5074158861589,801.8620018048978
-558.9054366169896,235.59625356263356,611.0873743837091
-980.972095465832,-12.695670794817804,597.7535651828097
-1158.8666874008964,-18.213661138105266,689.2975684866902
-978.2045856638099,251.60477839017406,734.265014046591
-824.9973232449411,427.82805545216775,673.1707565784443
-610.3297252374665,446.1849867181964,750.892506615409
-798.3572371808926,366.7419557137249,787.5900536880588
-949.5036531333332,219.93749139614448,679.8570357869405
-1030.2294871337308,184.85925366970375,580.6508848587439
-616.9334074327115,248.56806350792576,712.2146706571563
-396.31474560629783,333.07398550983265,836.8974114503934
-192.7620543202827,273.39713357772536,832.298491329863
-201.60401360301432,183.35211310692236,706.8815548632816
-344.8262148644033,106.05660444698242,591.1825139063799
-877.996053698256,144.57128581115876,535.970999270903
-1421.9636675113318,214.26175095470933,496.190850086421
-806.2223083315914,16.201251191793325,521.7806284511022
-240.4399055742787,218.33143836070423,690.4834984423835
-482.5582640351191,467.53070620446334,654.6190595157368
-600.4262413770248,533.5073649003483,574.1379574064539
-789.4153457092892,305.07767688252363,391.54553287820005
-1184.6043246164595,-80.48191788225338,626.3290726190902
-895.1966267787675,-57.573381327976435,414.73184012889215
-700.8478940310912,262.8930368678397,510.7534173239588
-751.910183395961,575.97548602224,862.1476243161528
-590.3647015035716,570.7892093630343,856.735990373879
-676.4807554057707,252.437886536177,660.2886816598941
-343.25075331535237,-31.57979534295606,776.1284434541868
-316.27518061723424,-70.40691775478885,784.5125501572913
-495.36589967012185,135.18377835448396,686.9450831833501
-639.5741665094605,266.1836610871195,499.88630164225304
-917.2418715871374,275.9953704883931,487.84447288319666
-1069.774081873015,182.03565947596786,662.4841306664356
-1087.323397898365,266.58338984260683,583.4438875660904
-1172.7042364110068,284.40089123197015,338.7782780052312
-1179.3731804438826,367.8157168859907,573.8748706235056
-1000.6383423493244,420.882768325575,607.7702375428919
-920.7598925219112,393.9592011543188,695.3985305889372
-888.4379477191499,244.47798177767132,880.8441210811033
-433.2111373404782,237.2349375168891,903.3859676851934
-433.3202469752668,241.0690704776861,899.4468039544596
-472.17041497351295,74.22942595075791,813.0860181611458
-698.6585633218276,-103.4379732120551,649.3838364783082
-944.8435500400241,-116.87171460182633,661.4399412643462
-945.6368892537207,2.648253990914329,613.9293234692786
-766.5645250926668,246.03100957003667,729.6049109532818
-647.5269332544754,365.71816063589506,805.5513350634519
-529.9138849658141,309.2697302340759,654.4436683271047
-402.6216903835663,178.88473637786606,464.4837941600853
-445.67003003064247,71.90936762299053,578.013898731983
-653.0731697368624,-22.859794119296602,614.4728322107958
-1044.2913737106965,-170.97377799758328,581.6400095853325
-1191.925887025641,-257.10104877812506,340.31702977061485
-991.834112566473,-2.838329093013415,393.4768753855803
-645.9361759622298,334.2252451142847,746.8126220472843
-496.9260654759781,512.3859829809365,897.5786838522839
-529.3866916837045,377.04720776207984,877.9256932795604
-502.89854333538983,152.72697608255626,910.4770742302418
-542.4931041691098,-17.165188927921363,914.3815676097342
-646.527611365757,-79.1461916148736,814.9164087634413
-673.0881595651931,90.09325304767684,680.5106738794594
-537.7310294545028,332.47337266038863,646.3991271229218
-521.8560874508624,475.3600872877079,630.4558641330119
-808.9021225392975,466.4987533969297,685.055549040702
-1094.2676653087447,206.03773969704233,728.7554873478712
-1221.0183905819013,33.3380920089939,774.5346270133023
-929.3336664406297,96.43446028970138,731.5953970010147
-600.4966017957204,573.2293902606905,1119.526035904208
-233.5690577312334,705.6578954077081,677.1680441333177
-394.5302422335864,574.8283052826399,616.3297354346286
-434.11256647275064,321.97029566671597,859.9154655259442
-620.6135632453489,-210.92523950584555,811.8246292056922
-1051.1744581482974,-590.6604192053352,802.731819734568
-871.7635482045348,-251.76487383561158,352.94417563592054
-362.98532118511423,535.1552263005207,534.5189233836223
-294.6888081047045,749.7463455920218,793.8429535060393
-375.41566182131515,545.7388608750185,840.4174718175933
-432.82058603090763,209.30287101099768,809.2957329975069
-500.6786211397369,-21.498065088485877,899.3234182926892
-580.4255275756758,-124.84997425216562,953.4224225398074
-636.9331015178476,47.71405117955674,732.2153844585052
-548.582849393014,375.22089602463643,657.8658359378586
-543.5403527198381,473.03411460590524,783.1991556749757
-782.7311059332189,247.95317463150008,929.5110970616878
-903.6470150357158,-3.509995768177717,826.5085426725743
-887.2887275471238,-16.97072904610647,634.4929206201915
-480.80945072986196,328.94107569863314,733.6052576567942
-287.92095159917,454.9494475687417,716.4464929410146
-429.617657405944,401.2093834285919,639.9371854812806
-562.4489504570879,176.77902239806664,520.9658751969328
-659.3658384871491,159.0634926300011,617.6900368627412
-521.5328374113485,122.01618289629997,490.36725079410405
-771.9170154945879,226.37495984867414,690.3448170374186
-953.5804785528189,1.6518892792135949,496.0746024381416
-923.1898762574376,-2.557499247959293,484.77104821728125
-847.6839695512739,166.50232240367507,850.320955678035
-1049.9609958548538,316.3180086981793,984.1474917530452
-1039.2641727807154,337.1926192940505,733.061748915277
-552.1722504626963,284.50082342084204,461.8875966818435
-335.3968990429964,267.6326778257611,496.5885394094824
-455.46440425629555,381.39425797800476,565.0492268001816
-600.8586010513275,336.4421081612988,602.268868573876
-814.9847297497108,149.29359159345955,686.0344766051609
-804.3572473780548,22.523797627120373,796.5105311191896
-657.0102940351701,157.78578821513975,908.1511015484392
-736.3187224995285,304.57189764088656,812.2773832042544
-869.4640881442695,351.39216755976815,739.4818821921859
-896.1826923567173,246.39708769049574,657.0184517648739
-635.3199104689165,232.49325712654172,629.5758490412119
-445.24786751846966,331.7595713113041,647.7869608887847
-525.2700973319126,324.88566431961993,674.0834025890596
-570.57200980967,123.66404429647231,630.912696996426
-634.931398591772,-60.91356375520693,701.2149918677633
-721.0535707912488,-13.25722851330475,762.5580600918765
-785.4751622623426,161.30686829855253,757.0791248795462
-908.2877435209783,207.7304686105857,649.118710262934
-720.3785186582575,219.499013424564,400.7178802139365
-460.03477232286264,228.6366904090592,353.56620252583707
-371.88642400819856,268.44335221507856,554.9081490621161
-617.5941835387213,141.26536584868433,826.3800584297392
-856.7676015764814,2.1476039218285554,1066.5925672885237
-729.1633738330623,193.37490376428244,930.4981823558504
-424.61900852992613,428.5000484365201,667.3920247994984
-405.64005037398096,284.3917137860534,577.8966313674905
-467.55313996114893,-29.007459224097936,523.0817863388619
-561.1151616505127,-130.84182671962395,733.9529808854196
-709.7214645164252,57.106963132160324,852.7570577108393
-903.589910927789,250.39335552915625,664.7438217943946
-1037.0921772470724,208.3025294060663,600.0917744591682
-839.2815079563358,272.7577715121882,626.3851570108039
-877.529023672712,112.92031427653686,889.3006276353292
-936.2381649187032,48.48332509062729,986.7538863934169
-790.4636139762306,166.9071497402273,945.3676841734946
-538.6650895055907,283.0303926417279,740.7422514314267
-70.46779481270363,115.72147471358723,614.8827581284129
124.63889299607922,-197.96974501996095,752.3007347055316
-140.77386263402897,-290.35195505090934,1003.7372599205642
-1172.3371385743349,-149.78509480811493,1105.5457266242806
-2251.625172714434,322.89211912324805,1095.634085034135
-1316.5148139272842,670.5103169787849,555.1008754263688
218.17950064497052,468.6942024034712,535.598802853166
223.8175115865255,-110.17319879877431,706.3951502296911
-273.31759571311306,-447.18838747176665,656.9144407111502
-414.37086058949797,-345.2952843223731,678.0052311441726
-447.5310121193272,-51.14172525786074,660.8179143744296
-593.2464195214473,45.7196902102145,548.4196947989376
-793.0812254949449,66.7131997165189,557.129090973982
-1145.589982307924,167.49858514375453,700.6439507884957
-1483.7788643420538,268.76354310595366,479.3828677479058
-1280.896126607965,372.98771751821477,199.4972799070019
-428.2818291669429,340.62600378314715,357.58898298603503
-107.3649003482331,173.48533903014794,983.050277107881
-507.91860625188014,-148.764358878924,938.8904467886588
-896.6731758551596,-185.263061290043,842.924953985306
-698.8268164969691,105.06238113932895,601.5825995625419
-286.9002156699791,264.9763170909536,673.9314648733258
-176.4578117909786,232.8899267333901,644.2974920079743
-447.61564856500445,111.03689843116662,624.9483768667181
-633.087751678708,-62.44385187602292,532.4886684035833
-851.843391984011,-63.389536691938645,666.5772715453289
-1152.4220809348758,40.33467086109936,751.9907409767862
-1202.0108803719925,197.19374098188476,511.3173203897356
-640.0972809267182,482.31863072506934,440.2798101288412
-54.593872525276225,392.9017554414607,904.6075877083408
-134.46895728918642,-20.306628665242467,1352.2150785436415
-772.6022647897091,-305.6191461916149,1335.7670560283075
-1229.3596692040605,-185.02036883135426,578.9153278642555
-1117.3846318569545,221.54252471537174,280.9501715672529
-248.4885256433135,428.71724798988447,414.9296650742099
176.8177716141598,181.62879270698966,845.9932800701565
-244.6023871556546,-142.74293464128934,978.1362646775403
-653.5249040192116,-75.04693243870233,834.4215404852831
-627.7383204254257,226.6716972666507,849.4878475320319
-521.2870858040208,367.49348656268967,1113.560696058287
-716.6677713592308,338.4030224388553,1149.974762023729
-915.549142673594,302.58039187694067,864.543957416651
-791.2314602846029,252.5490356033916,572.2280289395462
-455.0707937980861,218.29676800946302,498.88697975353466
-431.43785084610954,84.07621358975797,652.7539985622002
-795.2572998934397,-108.49066704736073,863.807722310881
-977.4805871525956,-77.47202153640643,711.8383953745673
-771.8588916704482,41.018084667037165,730.2167406810686
-425.4939250406612,155.08150081832227,809.5883915506315
-424.4578933682757,128.3078319303738,845.0153722219108
-447.9664309422688,21.25251742440079,966.6879107544371
-376.84836310054914,-84.11047605451404,928.862557550234
-209.6801660097995,84.9022856938914,938.645714897544
-313.3445162211357,197.79639326375474,924.9376698464818
-502.99133751077085,166.1586780399015,682.8019762100208
-269.70474117053226,241.13637174774263,619.3246419521448
-470.5765985326284,-282.41142490045024,1599.2413311375446
-704.970606680161,-100.91203418088747,1355.7127051541559
-1659.5779394594485,83.2575854139793,779.5710053892003
-1633.0755150841524,346.41289329179693,378.7684887295866
-236.42120397893268,430.6241173081532,207.09926427475233
117.61814686972617,105.48250421907584,931.7045066358035
-330.0851972895943,-261.98446972207637,981.1831767219185
-780.5142428862049,-248.80259823691068,762.4622067678566
-566.8072175513555,58.95570862628931,752.8513814605396
-164.88607220610507,188.45375332045094,876.1728011094515
-282.50319935961824,-19.701733007703957,859.4147848653721
-677.6106009697502,-88.68900185078493,586.8548382985016
-879.2747778293302,20.66954566544131,524.5960649151341
-970.7586178766451,92.14502403980974,648.5721423727778
-796.6726659970531,187.52377213421508,650.8583461222743
-658.3899700713292,52.17184257621104,778.9744714046082
-688.5287024621049,86.3435525893144,680.2924546098822
-871.5494077998094,48.6443382806565,630.5823089434211
-796.7185532266371,155.6209306949876,545.0005863368226
-831.3226229140431,-40.05231144172577,698.2027501746265
-616.0299388680131,67.28515854037822,775.6328613746795
-466.7037163557383,143.99514615082623,400.8473841729847
81.46390459535112,299.2255255362433,71.01762579474133
174.5499227564969,-18.76277831879388,932.9760927533868
-542.716422019752,-502.7007183900721,1563.5818551697066
-1679.890686421969,-575.2463889299609,1107.2282583756942
-2180.245037805979,489.6728240530661,342.61750954709305
-612.663855648973,1102.996436091836,214.89397500675565
319.1681155134527,613.0034211478946,752.4791850428027
50.2058297175896,-164.82183008468743,931.6066138793575
-768.5417548296309,-479.63065878765946,488.6969556372462
-1048.421224373257,-92.90287712929494,224.17441226106777
-755.2426159799728,341.43259930761275,592.0900613359303
-413.0615449720343,258.6102287733324,1146.9462048711846
-552.3925091646995,64.44086410751888,945.3544278627259
-980.3408911299987,206.59450474932828,459.6615561889127
-1106.534851350869,424.9606134612738,107.74321506324792
-877.2435031330781,296.3703201399051,637.5102608943931
-623.6757710329216,-138.19398061519482,1152.972727689884
-806.4874345469657,-274.38014000703606,907.3699989292982
-1011.1210250187374,103.56951660352925,592.9843524547119
-715.1269801614211,372.42687360107686,631.8335007367451
-353.85172306547094,252.66222410303217,967.3170756578446
-367.94114198018696,27.2535473377759,1273.9824506839748
-516.6004700891742,34.55277796189321,1095.124226927646
-394.13153319431206,141.39894867258442,606.0234636700607
-417.2872489586149,123.25513809506816,719.5525485257454
-537.3802470772384,21.616352169191316,498.31695839048
-846.9773062156803,-114.24288620476922,1039.6618621037767
-1060.6578189289921,-17.491192201210403,855.6010462288347
-685.8131981869446,246.35935819061558,836.778104653475
-404.01054386564226,288.78567094777526,1068.4790422825329
-188.4007280773761,275.3641661525598,624.351842882126
-205.05371355151863,14.555837110532142,864.3838619712136
-601.8161145753137,-329.91490468202704,934.171200154997
-863.942324850994,-276.7132507023296,1028.1798575456453
-845.5048360041402,-117.73541423421864,1082.8672380476517
-946.5107860482428,167.61789194067293,888.0830864770336
-1313.6698056930757,146.0060265228187,745.2942646061601
-1268.9756440782533,-21.796434052403217,624.8667995696798
-408.7512045397766,-131.60559416314442,351.6256825725401
297.60111760896945,-256.35257707779925,864.9783565233797
89.37731029454504,-521.1280100747963,1357.2524766357524
-899.4529222517374,-556.5794639351868,1283.6901490315247
-1594.5608337199758,-141.36019945649127,812.6995457164272
-1111.5518551187206,524.1106799977567,-57.500573590369804
145.02505952593395,568.6875742480869,404.65296507981833
413.97317126643657,-0.17399723656906285,1058.1595142071963
-222.48882136101525,-609.4680650375002,1156.6539032187343
-1145.6511652807026,-790.2688481795517,896.1806529242913
-1400.743373119261,-288.43998715157574,545.300382903438
-1099.845512993734,309.90807258340004,657.6782081546706
-724.0658124843857,318.2340554623649,1051.8168793624736
-285.91822895688136,154.09951410522456,391.7474366883697
34.81321348268777,13.822559181779713,561.8595544859867
118.6939474744179,-76.75332554949958,889.1650053790031
-163.0087746580127,-22.48372277995034,1084.9168676357372
-523.9148944848649,25.117853701314928,1330.525714693601
-778.5543483248613,28.872958655606148,1095.1446212519056
-1030.9840771313345,244.59117027731187,768.819117639561
-710.6024993244381,759.628415411991,238.13228778430965
-71.98737591328334,775.8490412118308,879.5072731258891
77.5334084524277,400.8891925377168,1047.8501832939894
-154.9744306159596,4.571989415345709,1088.8733665420914
-540.7157388098892,-267.7428071767627,1017.2933672558929
-737.8758291567458,-84.0020802210745,625.182911595703
-645.3528982884064,236.8280707479109,672.5823803235561
-483.2251584384066,287.8465123156226,894.617427969796
-554.4676316581097,214.53401518357444,854.5507385294675
-792.1053570791249,36.18666924994775,1036.0520667098347
-904.9869221395687,-226.8399504417921,944.980192012563
-899.4620996976543,-188.82798917061382,874.291424696507
-800.7148210652977,44.61625529615108,674.8277954245334
-730.5114386666191,241.2485405311702,659.5177762028828
-490.6079038203668,296.5844605446305,568.7334614776709
-122.34045265202697,347.37652511306106,515.2095771746724
-18.004415371202196,316.74730922384305,642.463022540827
-254.54054136733748,37.27021969785809,765.4509949880949
-620.9867793792988,-135.6497886638149,1007.7967501644293
-1190.1515808150593,-373.3854068412761,748.8969219866112
-1357.221885149363,72.54097984530907,281.78429942946883
-1130.2636476268656,460.7393962260303,193.60841877705437
-495.035511617117,293.48044439232564,219.3868446411364
-604.9649982409896,783.5162874172119,836.176472087818
-846.389949677005,377.2389144101197,622.0013970112119
-865.0578943879921,-130.3635798157373,521.3941560063835
-687.2387614526878,70.22316489321022,609.7229940907446
-451.56195030922896,505.83022744770136,207.54691969224967
-170.5016493909745,391.60161726991385,227.8413117629364
-29.154094415524163,124.7174111444785,360.3717885312518
-549.1681664992634,-117.13276195234867,1409.1254403899395
-1250.9878500813227,-141.8629195494894,1057.251966777646
-1094.6143688211573,455.8549555658661,111.74152233433436
-266.9096990307598,890.6374755905433,566.1556188912626
-34.24920844528968,533.9213696828173,684.6578597176407
-638.0670259466791,110.3404322577027,1242.187699163323
-1198.2583247082339,-109.69699132731363,1238.4657349859538
-1058.771343934983,226.15674057909683,415.249855965085
-90.57833205019044,415.89023774683517,417.3382347692638
153.1766709324795,262.7767892195602,813.9680726853718
-590.99080725834,-300.16570388460894,1240.3522099799627
-1312.55831502093,-380.80282257447755,1108.1562001295042
-1460.9372211713483,-112.8163032228131,661.544972034283
-347.50296992347035,152.60155098835995,171.05127642976962
22.179439461997728,195.27565478527328,937.821784197458
-70.0764277301627,164.15493568139988,838.4290252022863
-540.2905171490775,-8.76517465189438,1420.65843075872
-1033.0439038815498,-107.35980176716821,781.7501389363341
-793.722626992908,215.17337724911158,285.81931648422244
-131.24359490753724,272.88727547123636,829.2964467988559
-510.50766571663115,365.33984592088024,1313.883946097801
-1082.5001402109795,318.1208669627243,1156.3377911927112
-1220.7328700422672,326.91693901587195,722.5291001514279
-949.5158897278889,532.8720816996631,1059.4851452840676
-629.7950880270021,366.18111179658706,872.5344536615461
-343.7483748272856,304.28127852018787,692.5708575303494
43.827198890548765,217.8990786864016,890.973981940826
93.9437014678815,91.07116089592267,1029.5156857846462
-347.1440298165021,-123.12563413601995,1349.370070309433
-1161.1916403664861,-279.4144789505081,898.1487052153386
-1395.4918346224247,-192.56830823981687,454.7893521233041
-376.0336098463798,-5.795444927676629,602.866422274681
153.22051872963758,-28.72408008851137,1097.5205600281442
-335.77827290665016,-33.56732421367134,992.101278214273
-852.1727603208029,-89.63264723427471,329.14297950880274
-641.8736265697257,-241.29850662560614,426.9959670223777
-527.3849887576288,-285.8244150652873,738.9057425318535
-704.093650737,-19.715805091443052,919.8186944573325
-1093.6762299052175,160.8408579892216,866.2784946949266
-1163.873494006618,128.28029959262338,625.9354621608807
-820.0374235850163,-0.7190895973650534,348.9479077972601
-433.4446523532501,-33.280783957824546,507.90840908975036
-458.5011191385438,38.915633779119275,770.2395823242392
-610.4959389801818,176.80655473581706,912.7082133042375
-784.4462686034477,120.08076152406785,906.3696573243668
-787.7348533903015,-24.631143152860563,730.2004252216609
-598.708019558157,86.95436260088819,826.84606873907
-299.38664069789377,191.45681756767095,662.2190044510614
-42.737938031845744,208.5115712297268,1062.3913364910547
-72.79152411883773,99.81451362085933,995.5897273788706
-603.6658797856558,-58.05244400483347,1047.0446074857368
-1072.77204753917,-89.04814590099576,631.9568863985154
-1161.6301183380667,20.708600796398365,712.6735429529963
-863.0521125970643,159.90577822192085,963.9265192496929
-681.4233198900747,174.95678952547507,644.7777783442868
-492.9746651506886,132.917968929247,867.5215287585465
-562.6151641998032,-207.58362947591687,373.12435949075376
-496.83938959787497,-357.6409885128969,523.7517398907885
-58.17797107065105,-63.82526142974411,450.83897151422764
59.68123671182311,429.29848623128186,749.2120142964214
-623.3423238312778,-19.38735449924286,1026.986789576461
-918.4318804076827,-107.50460146941107,865.8838645205041
-721.0321567507763,661.5847409665892,513.0304436275385
-519.5260359042079,793.6175962229712,743.2313787073059
-708.479450169018,297.852987513575,950.0787730774526
-804.5611906206503,251.32129728296619,854.6058032049682
-744.8527274859407,232.91643935492758,580.8385126419319
-712.317661994667,211.80423488143254,412.6383627436485
-614.9072313175244,259.66563505376456,657.2621639397756
-576.9095460733279,350.0502210234892,845.9086436244794
-500.22076856010983,256.6737876848874,855.2217117976069
-421.1213819194119,112.7010752907466,833.3447201643783
-576.8973094787721,171.40919682052487,771.9435281161253
-720.0450714566138,14.029051714907743,786.0288681659895
-759.5060494664336,-20.662917510056953,765.9312813244075
-540.8799131201787,52.63010304232332,502.0848097974335
-563.5645199940857,76.08938832322966,509.51548184140364
-527.9845818908599,126.25208404501029,525.5770319120189
-543.043750924118,80.11716539287117,545.1300902958708
-707.7738065496372,322.0743067204397,632.1129029791009
-970.022382770875,481.3855903901945,478.5120301020226
-1204.682536849995,372.30348793930654,620.5758337454687
-1134.5362585592432,276.41345413571406,775.00981476855
-550.3591950360216,529.2520891435914,574.9027445661874
-296.374399004757,433.5190916367975,476.99061351225953
-415.80866044979683,230.76381842933114,628.9456644215915
-707.462793104679,281.6639729163374,871.6554582859591
-799.9000678111282,199.29639581304525,666.4691816267533
-392.3664044296473,489.4127964187567,585.2528641279133
-612.4405377983308,443.66322852350197,468.29651308040974
-903.9825016697855,259.88793318819376,429.2281258125864
-1136.9733803082604,227.46605619656052,492.5657589492845
-391.13968582543487,413.35522324137196,302.95564744331654
-679.8162471384214,268.04566289201716,671.9603534336395
-554.2076040238003,278.2591404812041,626.7114661989569
-417.50138936334025,319.16301693238773,561.9034022831447
-204.2787292296554,267.64287498789093,612.3660985147834
-430.72201006459903,275.48143351705227,856.1985999296397
-1111.6844182264076,579.3884761870772,927.3900873386938
-1533.0923404016664,457.70879964105995,795.9007408238288
-1007.1013037071783,507.2129626324994,736.893842443648
-554.2269786318468,442.4467070814193,814.5391137646394
-12.326125639234602,536.4308912829559,983.2491217694117
-101.889840057512,468.36381435046627,1080.256764542428
-1080.1853844075195,318.7021052041217,1223.0884144942465
-971.7609989140022,367.2089857392688,1118.5878969882683
-164.00401768187916,649.2380170598524,917.8027155042753
-255.08405010885477,456.21185624040834,885.6928716738132
-534.7595764098852,5.953398969066909,910.4944094058625
-734.8462522879884,-60.94354341186848,1041.1608449368541
-954.4604936446189,-78.67222751908145,598.3725329240873
-585.2345092360797,179.90649202326995,418.57413081939296
-84.16584664487874,224.4038484089878,641.7838915429837
-751.3523986274621,-22.479338000234538,1001.5367123329578
-841.0191043832501,-71.38727292194582,647.1425002421827
-501.1181188275304,167.62502995416378,847.6594963621625
-301.11607939510435,377.3908521258534,685.1136728648419
-415.5109033156073,426.9225474550433,930.4839063288689
-797.0581187255588,60.108395833439566,1110.4607587708342
-1221.2427281487564,-302.57835244451473,1281.9362371452028
-1236.7934003966698,-455.22477094624566,642.509929486624
-445.80565228696855,299.60384025125813,82.74150703859118
74.73489927753107,592.1614414708388,372.1240178858224
202.35860360061795,391.4731330270786,539.5471440298165
-53.62249086079345,-17.21240178858224,906.0056186363337
-423.28827887199,-506.61948779654625,1231.7865937909482
-787.3616372563516,-404.8732237818216,1041.538139935656
-839.5425553068583,228.34301213972154,850.2342797999318
-842.1958568930268,644.7624826010922,687.880162950651
-964.6913064094264,646.7917178649183,375.99384091407364
-1025.8854960664448,293.0858142179032,572.5013128846243
-1020.5625774347001,-90.89678942350345,471.83594805565616
-947.0818271275105,-28.60936201455135,578.6909902974003
-739.2422488821362,70.13118649079962,553.9995819163528
-663.898477053836,43.06618468080334,621.9381746060072
-622.0115941733417,113.12425751913244,704.7462691133059
-691.5898905334647,139.76638301560678,1025.4368209327347
-801.2726058337965,242.42937190579863,729.0970922792188
-840.6305925061056,493.5446865137433,653.0925443449089
-565.3826740018253,520.7486756435684,476.5908847567722
-415.8576068280198,372.64509287065414,487.179617912335
-249.91918749012154,217.94598563219859,639.322296604855
-220.04864046335908,86.28685636787283,1083.6932081801635
-517.6517975047545,-64.12750531527077,1307.378156659002
-1118.0168559090007,-245.65881315229973,1247.9694900909078
-1033.7067194199856,148.23206701574952,376.64136070931465
-534.032518750032,724.325840118695,339.0117930180031
-27.198890548760286,634.1064481754729,645.1795465322001
-192.22160472740438,85.29630403858607,997.7749792232822
-812.3722168120613,-396.44832843019793,1096.0725630057157
-903.5195505090934,-209.27941753809918,317.0042777095135
-651.4181703231991,367.6076947785432,581.7837895713624
-297.160600204963,682.4766867380808,625.273666338658
-144.3714214334151,616.4164113127317,1157.6124364589336
-588.3701365909868,104.1222027909633,1454.8801068662592
-894.9192639688376,-193.54315693942377,784.1097622531651
-744.5702660949459,150.89148689919597,494.7775234152336
-441.25567854466107,616.5489744204189,482.0514650772691
-228.79780557070967,764.7830808685943,802.6278086808442
-276.79482799936784,450.0170802465675,1038.4483998103328
-463.3529288798928,-89.7441022163532,656.7869761845279
-259.1945261633688,8.072919906390052,526.0777125725912
-168.26847088455284,230.08570714770082,770.0172841898101
-302.8669321327875,326.8710517862879,1089.495393432008
-606.611839924949,217.5197442551738,1571.963922440385
-988.3976689287372,-207.40619885485873,1312.5787093451893
-956.350027787267,-70.42619039121413,653.2618172362633
-639.7515971305186,498.8502699698675,557.9683174172628
-356.69979044831825,700.8009870852943,459.4861650002805
-382.3925601505102,462.0160809246787,989.7304380190994
-635.5299720087901,-31.04107926763982,1011.1495770727008
-661.0065618738306,-48.8938628379722,724.3309386997599
-339.90710385299775,367.9074913451587,456.93585475162274
-69.63448272345806,699.0776666853616,518.736775555363
-65.4752642339637,528.3282262546334,896.1388445595591
-418.9626426965376,-7.349186521391097,1253.7206895321035
