acc_x[mg],acc_y[mg],acc_z[mg]
-983.7538812948358,-136.1015229461641,209.59043098305744
-999.6308627309021,-143.82281411083298,197.60468661571488
-977.4377590716505,-140.37209444611565,170.45372272896455
-980.9629180199153,-151.84594127454332,182.21309009702603
-972.7103547082849,-151.768442842357,198.03500685759155
-965.8762166489066,-159.7701559655948,174.61620431034044
-953.4163042425293,-167.35786430636355,202.30149949269122
-946.1997726032846,-159.8170629113918,186.6855654071472
-949.6168416329737,-155.8156964916664,198.3939469645598
-957.8143402691034,-167.46493450872623,186.53668684005243
-946.6362111424392,-163.78783784472782,174.91804030938192
-962.21339601189,-167.5720047110889,170.77289390362662
-954.5339132119533,-171.4999515634799,170.90137814646187
-969.511504948173,-167.40986983322543,182.43742766388115
-946.417991872862,-171.45712348253483,182.7963677708494
-958.6331723881245,-167.6698974675348,162.97818317162336
-973.9656253664606,-155.9452004507146,162.7089780913972
-950.5447833867835,-152.18652648967793,170.89627956539698
-958.1151565519316,-152.09271259808398,174.7069590532955
-961.6688675541598,-167.43536273854988,186.47958273212566
-969.6756792584625,-152.00297757134192,174.53360729708925
-973.9656253664606,-155.9452004507146,162.7089780913972
-989.0247943997188,-163.4605089403619,174.28173739248368
-1004.4928696343808,-171.07880876752003,174.07575471746216
-992.4143310916573,-174.9007051337613,189.96803189672318
-996.3218836197888,-163.29837406249843,185.9462711527382
-984.0526581452382,-159.34799345342194,205.7399825628528
-992.0870021872914,-167.09477752341527,197.79639326375474
-980.6366088317621,-144.04001366419726,190.0404317478446
-969.4574599888853,-159.67226320914892,182.41193475855673
-964.9227819897724,-140.22117644659494,198.11250528977789
-972.2198712098424,-140.05904156873143,209.77703905003239
-941.9383785492498,-140.4342971351073,194.53330138222535
-965.7946393518685,-167.47411195464304,178.5686243518429
-961.6413352164093,-144.25721321756157,182.4771965961873
-965.4958625014659,-124.91829523843516,178.42892323066494
-964.8677173142717,-132.4845895387314,198.08701238445343
-961.7239322296607,-136.5532572285133,178.52477655468485
-965.5223751230035,-128.78607883426045,178.44217954143363
-965.4683301637156,-140.35883813534696,182.4068361774918
-976.9737881947456,-151.8408426934784,186.19712134113078
-969.5941019614244,-140.3975873514401,174.49587779720906
-961.8595544859867,-136.58792757975456,174.59886913471982
-965.6590170955424,-148.13009539445176,178.50540194663827
-964.9227819897724,-140.22117644659494,198.11250528977789
-976.7280365874179,-155.64132501924715,194.06321220804253
-961.8870868237371,-140.45673089179283,174.61110572927558
-962.2959930251412,-140.5597222293036,162.83134403695453
-958.6607047258748,-152.22935457062303,159.00027022479648
-962.541744632469,-156.06858611248492,158.95540271142545
-973.6107641243443,-163.57981573728034,174.51321297282968
-972.7654193837856,-140.19670325748345,194.07035022153337
-960.9061198268523,-117.03894806075469,198.09415039794428
-953.9353397949352,-125.00701054896423,178.60227498687118
-964.9768269490603,-128.6494368617214,194.14784865371968
-957.1607021765844,-132.5437330790841,198.2032600327329
-957.3248764868738,-136.44618702615062,194.28856949111065
-976.7280365874179,-155.64132501924715,194.06321220804253
-976.5913946148788,-155.60767438421888,197.99013934422052
-977.3000973828985,-159.64677030382447,178.3697796903122
-980.7446987503379,-159.51420719613733,190.0914175584935
-968.8578668556543,-151.79801461253334,198.0931306817313
-969.0210214497307,-155.70148827581286,194.17844014010902
-969.4849923266356,-144.23172031223712,178.4350415279428
-973.3109675577288,-159.64269143897255,182.35381093441697
-962.3510577006421,-148.29630913716716,162.856836942279
-973.9380930287101,-152.07639713867633,162.69572178062847
-965.7395746763677,-159.73650533056653,178.54313144651846
-962.4316152814673,-159.9027190732819,162.89456644215917
-966.2310778910231,-152.13554067902905,162.81196942890796
-957.9244696201049,-144.3204356227662,178.60839328414903
-977.5458489902261,-155.84628797805573,170.50368882340047
-977.6284460034774,-148.14335170522045,166.552288498111
-974.0747350012492,-152.1100477737046,158.76981436066345
-969.7572565555008,-144.30004129850664,170.5811872555868
-981.0455150331665,-144.14198528549508,178.26168977173657
-962.8415411990844,-140.69636420184264,147.1256749246685
-958.1151565519316,-132.78336638913393,170.71680951191286
-950.299031779456,-136.67766260649663,174.77222089092606
-934.8034242070432,-144.4999056762503,178.95509679656155
-926.4152386390869,-144.38773689282274,198.70394069330507
-938.930215720965,-144.5376351761305,171.04413841627877
-935.2123304084475,-144.60187729754813,167.1753351042405
-939.8846700963122,-144.7772684861803,143.55870761167168
-935.0216434766206,-156.13996624739337,175.0669188764767
-954.0169170919735,-136.61342048507902,178.64102420296433
-965.4683301637156,-140.35883813534696,182.4068361774918
-966.0679232969467,-148.23308673196252,166.72564025431723
-976.9462558569951,-147.97203938144014,186.18488474657505
-980.6631214532997,-147.90881697623553,190.05368805861332
-969.511504948173,-148.10052362427538,178.44727812249855
-993.3687854670046,-155.82997251864808,158.49245155073345
-969.6756792584625,-152.00297757134192,174.53360729708925
-984.8164255887588,-151.81636950436695,182.15496627288627
-976.8911911814944,-159.54479868252668,190.14954138263323
-973.7474060968834,-144.30412016335856,166.59715601148204
-977.2460524236106,-151.90916367974793,178.34428678498776
-973.0111709911133,-136.39622093171474,186.20425935462166
-969.0760861252314,-144.12872897472633,190.21480322026383
-972.4931551549204,-140.12838227121395,201.9231847776764
-968.9669764904428,-147.96388165173633,194.15396695099756
-969.1851957600201,-140.29459601392935,186.2746197733171
-969.1301310845193,-132.55698938985282,186.25014658420562
-980.5274991969736,-128.56480041604425,189.99046565340868
-976.7280365874179,-155.64132501924715,194.06321220804253
-964.8412046927341,-128.61578622669313,198.0747757898977
-965.4132654882148,-151.93057772022047,186.37047309733703
-984.8439579265092,-155.68415310019225,182.168222583655
-980.9904503576655,-155.71474458658156,182.22532669158176
-965.3857331504644,-148.0617744081822,186.3582365027813
-962.2694804036039,-136.69091891726532,162.8191074423988
-977.8731778945921,-144.3428693794517,158.68619763119924
-985.171286830875,-144.1807345015882,170.3507313914538
-969.375882691847,-128.75650706408408,178.3840557172939
-981.2086696272429,-148.04545894877458,174.34699923011428
-976.4557723585528,-136.26365782402758,197.9269169390159
-961.4781806223328,-140.35373955428207,186.3908674215966
-973.0111709911133,-136.39622093171474,186.20425935462166
-981.1270923302046,-155.74839522160983,178.29941927161673
-976.7831012629186,-144.06958543437364,190.09855557198435
-962.023728796276,-140.4903815268211,170.68417859309756
-969.5665696236739,-136.52878403940184,174.48262148644034
-969.1025987467689,-147.9975322867646,190.22703981481956
-981.0720276547038,-148.01078859753332,178.27392636629227
-973.3925448547669,-151.93975516613727,178.40241060912751
-973.3925448547669,-151.93975516613727,178.40241060912751
-981.017982695416,-159.58354789861983,182.23858300235048
-977.3276297206489,-144.20622740691266,174.39288645969827
-969.8123212310015,-152.03764792258315,170.60668016091122
-969.320818016346,-159.63861257412066,186.33784217852175
-977.4907843147254,-167.41904727914223,174.46834545945865
-969.4299276511348,-155.80345989711066,182.398678447788
-962.1593510526022,-159.8343980870124,170.7474009983022
-972.8204840592864,-147.93329016534702,194.0958431268578
-961.2599613527557,-148.02302519208908,194.26919488306407
-965.8221716896188,-152.0325493415183,174.59173112122897
-976.9462558569951,-147.97203938144014,186.18488474657505
-965.2225785563879,-144.1583007449027,190.2719073281906
-972.6838420867473,-147.89963953031872,198.02175054682283
-987.7970560792933,-163.15255464404257,209.62102246944679
-981.1546246679551,-140.30785232469805,174.32150632478985
-976.4007076830519,-128.52605119995107,197.90142403369146
-983.8895035511617,-136.13619329740536,205.66350384687942
-988.0703400243714,-143.91152942136205,197.77803837192113
-972.9020613563247,-140.23035389251172,190.14342308535538
-988.1243849836591,-151.64913604543858,197.80353127724555
-976.8106336006691,-128.62904253746183,186.1216623413704
-964.7320950579455,-132.44991918749014,202.01393952063142
-976.6189269526293,-140.1661117710941,194.01222639739362
-969.1025987467689,-147.9975322867646,190.22703981481956
-980.6906537910502,-151.7776202882738,190.06592465316905
-969.6216342991746,-144.26537094726538,174.5081143917648
-964.8952496520219,-136.35339285076964,198.10026869522216
-965.6039524200417,-159.70183497932527,182.47005858269645
-965.1134689215992,-147.9934534219127,194.21107105892432
-958.1426888896821,-155.96151591012224,174.71919564785122
-965.5488877445408,-151.96422835524874,182.444565677372
-969.2392407193079,-148.03220263800586,186.30011267864157
-977.4367393554376,-159.68144065506573,174.44285255413422
-980.9088730606273,-163.41768085941683,186.1777467330842
-984.7899129672213,-147.9475661923287,182.14272967833054
-954.2341166453376,-148.25348105622206,174.75182656666652
-986.0706765307216,-155.99210739651156,146.82893750669191
-973.9105606909599,-148.20759382663806,162.68348518607274
-970.3843820264822,-156.04309320716047,154.9132476431809
-977.0003008162829,-155.7096460055167,186.2103776518995
-976.6189269526293,-140.1661117710941,194.01222639739362
-972.5196677764579,-143.99616586703922,201.93644108844512
-984.4625840628554,-140.14163858198265,189.97007132914914
-973.9931577042111,-140.5046575538028,158.73106514457027
-969.5941019614244,-140.3975873514401,174.49587779720906
-962.2959930251412,-140.5597222293036,162.83134403695453
-953.6345235121067,-140.3792324596065,190.4330224898411
-954.4798682526655,-144.45299873045334,166.88675541596777
-946.5005888861131,-144.4448410007495,174.85481790417728
-945.9275083744195,-140.43837599995922,190.54825042190762
-954.4808879688784,-125.1436525215033,162.8966058745851
-957.8418726068536,-152.02439161181445,182.55979360943851
-968.9669764904428,-128.65453544278628,190.16381740961492
-957.0791248795462,-120.93732314296933,198.16451081663976
-973.6382964620948,-128.8299266314185,166.54617020083313
-968.9119118149421,-140.22627502765982,194.12847404567313
-957.6797377289901,-128.81157173958488,182.48433460967814
-957.7062503505276,-132.68037505162314,182.49657120423387
-953.9618524164725,-128.8758138610025,178.61553129763988
-966.0954556346969,-132.7925438350507,162.74874702370332
-953.7986978223961,-124.97234019772299,182.52920212304917
-965.0859365838488,-144.12465010987444,194.1988344643686
-973.0387033288636,-140.26502424375298,186.21751566539035
-949.508751714398,-121.03113703456329,194.35383132874125
-961.9686641207753,-132.75379461895756,170.6597054039861
-969.1036184629819,-128.68818607781455,186.23689027343693
-958.0611115926439,-125.0457597650574,170.6923363228014
-969.0210214497307,-136.39112235064982,190.18931031493938
-973.0111709911133,-136.39622093171474,186.20425935462166
-977.1104301672844,-132.56616683576962,178.28106437978312
-961.4506482845826,-136.4849362422438,186.37761111082787
-961.3140063120435,-136.45128560721554,190.30453824700587
-961.5872902571216,-136.51960659348504,182.45170369086284
-954.0169170919735,-136.61342048507902,178.64102420296433
-953.0073980411253,-128.63618055095267,206.10096210224697
-957.6797377289901,-128.81157173958488,182.48433460967814
-953.525413877318,-124.90401921145347,190.3820366791922
-961.5057129600833,-124.91319665737026,182.41397419098266
-969.320818016346,-140.32824664895762,182.34871235335208
-980.4724345214728,-140.13654000091776,193.95512228946686
-965.1950462186375,-140.29051714907743,190.25967073363486
-964.9227819897724,-140.22117644659494,198.11250528977789
-965.1134689215992,-128.68410721296266,190.22194123375468
-949.8636129565143,-113.39652174799754,182.54959644730874
-960.7419455165627,-132.44584032263822,205.9979707647362
-961.0417420831784,-136.382964620946,198.15737280314892
-973.1743255851898,-140.29867487878127,182.29058852921236
-965.5499074607537,-132.6548821462987,178.4544161359894
-972.656309748997,-144.03083621828048,198.0095139522671
-976.8646785599568,-155.6759953704884,190.13628507186453
-957.6246730534893,-140.38331132445842,186.44899124573635
-980.6631214532997,-147.90881697623553,190.05368805861332
-977.3276297206489,-144.20622740691266,174.39288645969827
-973.6382964620948,-148.13927284036853,170.53631974221577
-957.0515925417957,-136.37786603988113,202.14242376346664
-961.3140063120435,-155.76063181616558,194.29468778838853
-965.2766235156756,-132.5865611600292,186.3072506921324
-972.7654193837856,-140.19670325748345,194.07035022153337
-968.8578668556543,-151.79801461253334,198.0931306817313
-966.1495005939848,-140.52913074291428,162.7732202128148
-965.6039524200417,-140.39248877037522,178.47990904131382
-953.9618524164725,-128.8758138610025,178.61553129763988
-957.9795342956056,-132.74869603789267,174.64373664809085
-977.4377590716505,-140.37209444611565,170.45372272896455
-969.6756792584625,-152.00297757134192,174.53360729708925
-976.6464592903795,-144.0349150831324,194.02548270816234
-962.214415728103,-148.26265850213886,166.78376407845698
-965.167513880887,-136.42171383703916,190.24641442286614
-957.5155634187007,-144.2184640014684,190.38815497647008
-953.9343200787223,-144.3163567579143,182.59242452825382
-945.8734634151317,-132.70178909209568,190.52377723279614
-961.4781806223328,-140.35373955428207,186.3908674215966
-957.9244696201049,-125.01108941381615,174.61824374276642
-949.5638163898988,-128.76874365863983,194.37932423406568
-946.5821661831513,-136.74088501170127,170.90341757888783
-949.9451902535526,-144.31227789306237,186.57645577235857
-934.6667822345044,-144.46523532500908,182.88202393273954
-938.7660414106755,-140.63518122906396,174.95780924168807
-930.2136815324296,-136.62055849856986,198.6203239638409
-953.852742781684,-132.7099468217995,182.5546950283736
-942.5655040202314,-132.8680028348111,174.87521222843685
-951.035266885226,-144.58556183814045,155.1640978315735
-946.7463404934407,-140.64435867498077,166.98974675347853
-953.9343200787223,-144.3163567579143,182.59242452825382
-965.7405943925806,-140.42715912161646,174.55298190513582
-981.8082627604738,-155.91970754539014,158.6668230231527
-976.9462558569951,-147.97203938144014,186.18488474657505
-985.2253317901628,-151.91834112566477,170.37520458056525
-992.8507696308118,-159.5621338581473,174.2113769737882
-997.004073766271,-163.4696863862787,166.31367490427417
-992.6060377396972,-144.05326997496599,178.08731829931733
-985.1988191686255,-148.04953781362647,170.36296798600952
-977.2735847613611,-136.46862078283615,174.36739355437382
-965.0584042460985,-140.25584679783617,194.18557815359986
-965.1399815431367,-151.86225673395097,194.22432736969304
-945.9275083744195,-140.43837599995922,190.54825042190762
-972.9836386533628,-132.52741761967647,186.1920227600659
-977.7916005975538,-152.04682536849995,162.6386176727017
-988.3436239694494,-143.97985040763157,189.9252038157781
-988.8341074678918,-136.37990547230706,174.19404179816758
-973.0927482881516,-128.69328465887943,182.25285902933217
-984.2718971310285,-132.36936160666488,193.87150556000267
-988.3436239694494,-124.67050419868151,185.93505427439544
-980.5274991969736,-147.8741466249943,193.97959547857835
-988.4252012664876,-155.58626034374635,189.96293331565826
-983.6712842815846,-143.80445921899937,213.5418313083469
-984.1077228207391,-147.7762538685484,201.77532592679458
-977.0828978295342,-148.0067097326814,182.25795761039703
-972.9295936940752,-144.09915720454998,190.15667939612408
-981.2086696272429,-148.04545894877458,174.34699923011428
-980.5274991969736,-128.56480041604425,189.99046565340868
-964.9227819897724,-140.22117644659494,198.11250528977789
-977.1920074643227,-144.1725767718844,178.3187938796633
-972.6838420867473,-147.89963953031872,198.02175054682283
-973.0927482881516,-128.69328465887943,182.25285902933217
-953.7986978223961,-144.28270612288603,186.5193516644318
-973.2018579229402,-144.1674781908195,182.30384483998105
-970.0295207843659,-163.67770849372621,166.71850224082638
-981.3718242213193,-151.9479128958411,170.433328404705
-965.3857331504644,-148.0617744081822,186.3582365027813
-968.5295182350753,-163.30143321113735,209.9106218739325
-969.7297242177503,-159.74058419541842,174.5591002024137
-965.8762166489066,-159.7701559655948,174.61620431034044
-977.001320532496,-136.40029979656663,182.22022811051687
-973.4200771925174,-136.4981925530125,174.4255173785136
-989.0513070212561,-167.32931225240017,174.2949937032524
-973.5556994488434,-175.15155532215385,178.47786960888786
-958.6331723881245,-167.6698974675348,162.97818317162336
-974.4010441894022,-159.91597538405065,150.94145299363188
-954.2341166453376,-148.25348105622206,174.75182656666652
-958.4965304155854,-148.3269006235565,162.91496076641872
-958.6331723881245,-167.6698974675348,162.97818317162336
-965.9037489866571,-163.63895927763303,174.6294606211092
-965.7671070141181,-163.60530864260477,178.5553680410742
-965.8762166489066,-159.7701559655948,174.61620431034044
-958.8789239954522,-163.86941514176607,155.11209230471164
-962.486679956968,-148.33097948840842,158.929909806101
-970.6301336338098,-152.24261088139173,147.0471567762692
-985.7168350048182,-163.6277423992903,158.6341921043374
-973.529186827306,-151.97340580116557,174.4754834729495
-977.4918040309383,-148.1097010701922,170.47819591807604
-969.9479434873275,-152.0712985576114,166.6807727409462
-989.7610295054886,-152.06008167926868,150.68550422417442
-1005.501368969016,-159.7467024926963,142.6256672767969
-1000.7760040380764,-151.83370467998756,166.21782158025422
-1008.918437998705,-175.05468228192095,158.32521809180508
-981.2627145865306,-155.7830655728511,174.37249213543873
-981.5084661938585,-151.98258324708235,166.506401268527
-977.136942788822,-155.74431635675793,182.2834505157215
-970.1661627569049,-144.4030326360174,158.80244527947875
-972.6828223705344,-167.2089857392688,202.0119000882055
-957.2698118113731,-167.3282925361872,202.24337566855147
-941.4468753345946,-148.03526178664478,210.26446339983588
-933.5767056028309,-144.19195137993097,214.29438187352466
-938.2204932367323,-140.49853925652494,190.66449807018708
-942.810235911346,-148.37686671799239,170.99927090290774
-939.3666542601195,-148.50942982567952,159.27763303472645
-955.0794613858965,-171.63659353601895,155.19468931796283
-947.7813524496135,-171.79872841388246,143.53117527392126
-985.3344414249515,-167.39355437381778,170.42619039121416
-949.2089551477825,-136.40335894520558,206.18457883171118
-956.070625544911,-132.27044913400601,229.615617973518
-974.5468636078581,-116.47504499497792,248.9086487230604
-955.6341870057564,-108.98930827550696,237.39299352990065
-940.7391922827878,-105.37645373292614,221.90452397097891
-937.1579489428093,-105.47434648937202,214.10981323897562
-953.0349303788757,-113.19563765404088,202.12406887163303
-957.7062503505276,-132.68037505162314,182.49657120423387
-969.7297242177503,-159.74058419541842,174.5591002024137
-976.7005042496675,-151.7725217072089,194.0509756134868
-976.2915980482633,-151.6705500859111,205.82971758959485
-975.6920049150323,-124.48695528034551,217.5217836875998
-964.1865468840023,-132.31327721495109,217.7196086329175
-980.4724345214728,-140.13654000091776,193.95512228946686
-981.3177792620315,-144.21030627176458,170.40783549938055
-977.1920074643227,-144.1725767718844,178.3187938796633
-976.9187235192446,-163.41360199456494,190.16177797718896
-975.9642691438974,-143.86462247556506,213.6580789566264
-971.3480138477463,-132.11647198584635,233.31106952935
-1014.8531863582367,-193.8602886816599,213.24407417415733
-981.3167595458186,-221.4487108237778,186.3674139486981
-993.0944818057136,-252.3094022933418,186.29501409757665
-994.2661357344252,-283.4984423834847,158.91053519805442
-975.5451657803634,-264.47461671416846,139.50329623265847
-983.7161517949556,-233.63635900128995,119.65350043083012
-952.9176630143832,-141.19602514620183,100.1801838548332
-943.548510449542,-59.73844279137116,131.44243956906794
-949.0203076483816,-12.775412602672679,186.14715524669487
-968.2062681955612,-1.0204606058134023,185.81982634232895
-948.8020883788043,-20.444494297237082,194.02548270816234
-948.8286010003418,-62.931990027175445,202.01801838548334
-955.933983572372,-112.92643257381471,229.55239556831336
-955.607674384219,-85.81115875451863,233.39060739396228
-956.1542422743752,-47.32921028077887,209.704639198911
-963.779680115024,-35.66345286106877,209.5506620507513
-960.2524817343334,-62.80850239378381,205.77057404924213
-983.7273686732983,-93.61402721622574,201.59789530573644
-998.6498957340173,-101.0955830992235,217.09860145921394
-983.6172393222967,-116.7575063859728,209.5272085778528
-999.1128468947094,-128.24460952516915,209.333462497387
-995.1237170695397,-108.93118445136719,209.3283639163221
-992.1971315382931,-124.64093242850517,185.8779501664687
-953.6355432283196,-121.06988625065645,186.44287294845844
-940.821789296039,-78.36376336465563,213.96297410430677
-936.068892027349,-47.27271800257989,233.55274227182576
-947.4377080858399,-39.411827688354336,237.2808247464731
-925.6269980064549,-32.19499013424564,198.336842856633
-944.1297486909393,-58.88779552650498,225.62240928349644
-947.6549076392041,-89.67098856388269,241.37192619294052
-959.6518688848895,-74.2437019777396,225.44089979758635
-984.2729168472415,-55.131976770864675,177.9129468268981
-994.7158305843485,-31.590910249677517,205.14956687553854
-1006.6577271545331,-66.35436158117197,201.16247648279486
-1030.3722474035476,-112.6684443719313,193.11487612997306
-1003.702589569323,-116.81461049389955,185.67910550493798
-1014.7185838181234,-77.96943910509707,193.2321434944655
-1014.4187872515081,-93.34176298736062,205.06187128122247
-994.4965915985582,-77.87878633376333,221.0071737035583
-987.3901893103151,-85.8125863572168,205.44222542866322
-983.2093528371055,-78.03643446028971,213.32769090362154
-970.9941723218429,-81.82345653204713,233.14587550284756
-979.0550289854335,-112.74798223654358,229.20467233968787
-937.3496555908491,-93.93686936925454,206.21822946673944
-949.2375072017459,-82.34402165877238,194.22738651833197
-970.5852661204389,-81.72087308102157,244.9256371951686
-971.130814294382,-62.54827081623185,225.22981854149995
-956.0441129233736,-70.47309733701111,217.6329327548144
-951.8367638286265,-58.82824409966707,225.50616163521696
-967.4139486980774,-62.61220702278557,221.36101522946166
-967.9044321965198,-93.63044464725469,213.60913257840346
-975.0934314980143,-77.99340243610204,225.2226805280091
-966.7052459300578,-58.57249927345221,240.98137488337
-967.5505906706164,-62.646367515920325,217.43510780949663
-967.0050424966732,-43.20017539118864,229.15062738040004
-936.8326594708693,-20.431136014847073,205.97859615668963
-944.9200287559974,-93.84315744928188,210.0299286708509
-968.2032090469224,-116.87681318289121,209.7586841581988
-947.9547042058197,-112.91725512789792,237.52045805652287
-951.8357441124136,-116.75648666975981,237.47559054315187
-959.5692718716382,-139.87549265039542,241.36274874702374
-975.3636562944533,-174.6090662968496,237.31855424635327
-972.384045520132,-143.96251523201096,205.86234850841012
-949.6719063084745,-144.24395690679285,194.43031004471456
-928.3792120652824,-113.9859177190988,135.7772531904371
-921.517541668154,-137.4281737392484,116.33636359001292
-916.8197090749646,-75.45583864010646,127.97132558009106
-924.3911019563257,-36.7433323306124,123.8027257014373
-920.4560170904439,-25.166902051159166,123.82312002569687
-885.8835586056401,-21.600138681404967,120.40401156358188
-851.8026033354918,-10.432818546598483,101.25363911223508
-883.2853216949724,-25.806468059938922,85.13549479179946
-955.8167162078795,-102.30812764807555,119.62902724171865
-971.5019909959059,-160.1851804642768,123.51312629695157
-973.3639928008035,-205.9989904809492,190.35858320629373
-998.3653949105966,-260.35904207858954,146.99719068183327
-1010.0064751979526,-310.49440940586237,154.8408477920595
-1005.8531710624935,-325.896203086681,166.72869940295615
-1008.4789403109115,-325.5586770201853,202.0098606557795
-1014.9602565605993,-286.57288676561313,229.25361871791083
-1043.526586550963,-216.25325671865522,279.6082250309739
-1030.3314587550287,-119.38429535060395,306.95191528197705
-1036.8678396802172,-49.51711338734431,326.2418868828805
-1029.2199680828826,-18.695273105494742,318.4023086375062
-1013.3919330250392,-38.02113871709504,334.4036954515559
-1010.1380185894267,-45.92516302712956,318.78062335252105
-1003.5486124211633,-69.43645383489775,291.4858794797408
-978.4554358522025,-104.87373363992802,244.8858682628625
-975.5013179832054,-136.02402451397776,225.41234774362297
-964.8677173142717,-132.4845895387314,198.08701238445343
-979.9279060637425,-120.69055181942866,205.67166157658326
-976.3731753453014,-143.96659409686285,201.87831726430537
-970.4119143642324,-159.91189651919873,154.92548423773667
-938.9281762885389,-202.46669351919363,183.0135673242137
-944.0359347993455,-225.92220585011194,151.6195642752622
-948.3258809073435,-210.55508252053454,135.80478552818752
-959.5050297502206,-194.92181325936994,143.43328251747542
-951.7439696532457,-187.24436989185912,143.52403726043042
-940.2109792844651,-171.8925423054764,139.72049578602278
-935.7038336231027,-156.31127857117366,155.43330291179967
-932.1501226208748,-140.96862843070775,143.66169894918247
-935.5396593128133,-133.0984586989441,155.3578439120393
-950.6538930215722,-129.0420276037179,162.9669662932806
-943.1375648157119,-136.8734481193884,159.18177971070654
-951.4717054243805,-148.5573564876895,143.39759245002116
-943.4373613823275,-160.11991862664624,155.33031157428888
-955.3517256147616,-171.70491452228848,147.3418547618198
-952.2079405301506,-175.77460192828337,127.77961893205124
-963.6593536018927,-160.21067336960124,127.55528136519608
-982.4629205692057,-171.53156276608223,143.01112000530256
-1009.0550799712441,-155.78000642421216,150.40814141424445
-1119.5362330663377,-180.6345693993362,301.8982017304584
-1113.5810903825468,-211.0323097082082,368.8079007612182
-1058.7611467728532,-222.8151305491682,397.1417354550229
-987.2780205268874,-244.122100819342,241.2995263418191
-872.401890553859,-238.47083356701833,109.5634085034135
-826.5891002533997,-209.03570536319742,-19.361861593918412
-815.7923449903892,-201.59279672467156,-42.77301626957218
-881.9556117532492,-216.6988727037266,-59.41162374511174
-911.2286050792065,-208.34739691943736,-16.707438319915568
-947.3653082347184,-118.62460677193539,33.46861568425507
-971.587647157796,-17.31620889906339,91.6333304441374
-969.5706484885259,37.25635155736159,138.57535447884854
-968.3429101681003,18.25475570148828,177.9037693809813
-975.5574023749192,-27.905145997868797,201.49898283307758
-976.7280365874179,-155.64132501924715,194.06321220804253
-980.3082602111834,-174.85277847175132,205.84807248142843
-957.1607021765844,-151.85307928803417,202.19238985790258
-934.2854083708505,-128.9217010905865,190.68387267823366
-906.8213916067159,-98.11199543167137,198.84058266584412
-922.5352184487058,-121.23915914201079,194.75865866529347
-949.3445774041085,-136.4380292964468,202.25765169553316
-964.6770303824447,-144.02165877236365,205.97859615668963
-983.1808007831421,-132.0960776615868,225.28386350078776
-974.874192512224,-124.28097260532395,241.08028735602883
-994.7688558274233,-135.875145946883,225.12274833913725
-963.6685310478096,-116.73609234550025,229.4494042308026
-945.8194184558439,-86.34508216363386,182.5179852447064
-914.6650487169421,-78.77736026063947,190.80929777242994
-912.0923047115989,-106.16163521691915,159.54275925010072
-931.3333299342794,-102.1439533377861,159.24092325105926
-941.747691617423,-94.04393957161723,190.45443653031364
-967.8493675210191,-124.51142846945696,221.56393875584428
-986.4622475565052,-128.06106060683314,240.92019191059134
-1024.0194153966952,-142.96421305950554,271.8043368530538
-1055.253323000209,-162.13793701212956,263.5517735414235
-1061.402211764466,-153.96491156511146,306.6031723371386
-1054.3763670570481,-154.19536742924447,287.0858040207411
-1054.845436515018,-162.03596539083173,275.3315352337445
-1047.7074230241724,-166.10055421576178,259.7533306480807
-1033.0541010436798,-177.99656355636228,240.38993947984278
-1009.5537211993903,-181.9418455843739,252.529660995345
-1013.4347611059843,-205.09042333518585,256.47392330714365
-1012.9432578913289,-212.69036827051036,272.2050853247542
-1009.4170792268512,-220.52586765103274,264.4358674980753
-994.7117517194965,-224.6852900837697,245.046983424513
-999.6023106769387,-217.1913956345949,213.5510087542637
-980.9353856821648,-205.9051765893552,194.16926269419224
-977.9812678131676,-198.43677504550485,166.71646280840045
-958.6331723881245,-167.6698974675348,162.97818317162336
-958.3884404970099,-132.85168737540343,162.86397495576983
-958.143708605895,-98.03306939678689,162.7497667399163
-953.8812948356474,-97.96015968755896,174.58765225637708
-965.7681267303311,-144.29596243365472,174.56623821590455
-974.919060025595,-194.8035261786645,143.20180693712942
-960.9224352862599,-222.31139073995712,108.1827127510414
-960.4044194500672,-206.73318615429326,119.91250834892651
-967.3762191981973,-179.4557774571337,135.41423421861697
-944.3918157576747,-160.35955193669602,127.84488076968181
-960.3503744907794,-179.6862333212667,115.89686590221943
-960.8143453676844,-187.526831282854,104.14259711522286
-957.0424150958789,-179.8534667801951,100.24881075596663
-957.0159024743416,-175.9846634681568,100.2361662749257
-961.2507839068389,-172.18826000724002,88.38604416390919
-984.1260777125727,-156.50094578678755,91.91507803378322
-984.6440935487655,-172.0781306562384,80.1859962372472
-984.2351873473613,-171.9761590349406,91.96565595794691
-973.0570582206973,-168.29906237094218,80.34680548403381
-980.8721632769602,-183.71411236252953,80.2817475896458
-969.4758148807189,-187.70630133633813,76.54132654882147
-984.6716258865159,-195.2562801772267,84.18848434480685
-969.4482825429684,-183.83749802429986,76.52868206778055
-968.5478731269089,-191.33547133832656,104.03960577771208
-963.7684632366813,-175.6858866177543,127.60626717584498
-960.3779068285297,-164.24569042435493,111.91997267160552
-955.6250095598397,-152.46388929960793,135.49887066429415
-963.5227116293537,-179.48636894352305,135.47235804275672
-947.9179944221523,-171.8333987651237,139.6042481377433
-935.1572657329466,-175.48296309137172,175.13014128168135
-934.7218469100051,-132.89349574013553,178.91736729668136
-953.7171205253578,-113.36694997782119,182.491472623169
-957.4890507971634,-101.73076432828745,182.39561929914905
-938.6304191543494,-101.98181845992262,170.90545701131379
-942.7561909520581,-121.32991388496583,166.98362845620068
-942.5114590609434,-125.13039621073456,174.8497193231124
-943.0559875186736,-125.26703818327361,159.14303049461336
-931.4149072313177,-113.75036327390089,159.27865275093944
-953.7986978223961,-144.28270612288603,186.5193516644318
-945.7643537803431,-136.5359220528927,194.46294096352986
-962.2959930251412,-140.5597222293036,162.83134403695453
-958.2517985244708,-152.12636323311224,170.78003191711747
-953.7711654846458,-140.41390281084776,186.50609535366308
-977.7640682598034,-148.1780220564617,162.625361361933
-977.0553654917837,-163.4472526295932,186.23485084101097
-968.6671799238273,-144.02675735342856,201.99354519637188
-958.3884404970099,-132.85168737540343,162.86397495576983
-954.3432262801264,-144.41934809542505,170.81266283593277
-962.7864765235837,-171.57744999566623,155.0794613858963
-939.0933703150415,-148.44110883941002,167.13046759086947
-923.3795434730516,-144.62329133802064,175.20152141658977
-936.0036301897183,-160.24840286948142,147.59372466642535
-939.4472118409448,-160.11583976179432,159.31536253460663
-951.171908857765,-163.92957839833176,155.22732023677813
-974.1828249198251,-167.58526102185763,158.81978045509936
-993.1780985351778,-167.36806146849332,166.38403532296962
-970.4119143642324,-159.91189651919873,154.92548423773667
-977.7640682598034,-167.48736826541176,166.61551090331562
-974.2378895953258,-156.01352143698412,154.85512381904118
-958.0600918764309,-163.6644521829575,178.67161568935367
-923.9526239847451,-148.62873662259793,159.50808889885948
-912.5552558722908,-152.62092559640652,155.76776982965643
-909.5746253817563,-160.59306694946798,132.29186317447855
-909.4379834092173,-160.55839659822675,136.21879031065657
-894.4063467137096,-156.91189142061768,124.6572478879128
-891.0157903055581,-164.78206115238132,112.96110292505597
-901.5402813397033,-152.84628287947464,140.23545247357663
-917.3907501542321,-156.69877073210526,128.2374715116783
-928.9777854823004,-160.47885873361446,128.0763563500278
-929.2775820489159,-164.41598303192225,120.23575838844052
-948.0811490162289,-175.73585271219022,135.690577312334
-979.0458515395167,-175.53190946959464,131.301718731677
-987.5706790800123,-156.36838267910042,103.63681787358578
-990.4156873142206,-148.36157097479773,131.03965166494166
-1017.9888137131437,-175.33714367291586,118.94377794659746
-1021.8678141873119,-198.4857214237278,122.8880402583961
-1022.7651644547324,-229.60644052760117,103.35639591501686
-1026.4565371457124,-244.98376101930836,111.20311217388202
-1031.2084146981897,-276.0738886367924,91.61314006312045
-1028.1798575456453,-295.6187892909404,72.10148215751558
-1001.5275348870412,-322.942085217684,68.66819964004019
-986.0309075984155,-388.6923669142878,84.82060642523187
-987.0934518923385,-443.02590589039073,65.36493093971949
-980.3113193598222,-516.6942839807682,53.941152177349046
-972.2494429800187,-563.0067352255868,73.8412199884772
-953.3357466617042,-594.139690924016,70.30494613349106
-956.8884379477192,-628.7916872734319,86.06710752397608
-984.7358680079335,-636.5262347488695,62.12835167972754
-973.0652159504011,-659.7594489453586,70.23081276480757
-981.6991531256851,-694.6898278209175,50.59617708391755
-966.5849194169265,-718.0545854088808,46.9767963575737
-986.5601403129509,-760.5645148955047,35.04713638194491
-972.1811219937492,-811.1485573564878,15.810088052494992
-980.3225362381651,-892.2975735852714,19.88650558549556
-934.9808548281014,-923.775193363687,1.0487781250477994
-923.1205355549553,-900.6184578831712,5.072935202133247
-911.3152809573096,-885.198309310519,9.122371044138417
-887.7588167213065,-842.787292296554,13.256718655198261
-852.8060040890622,-804.3674445401846,13.65073699989293
-826.9215277388304,-843.4684627268232,-9.377381674679938
-786.1685692871674,-902.1337561756563,-43.890625238995995
-753.0961133516544,-937.5627762793615,-82.52186016631572
-733.6378885756095,-949.2487240800886,-74.34179867742809
-703.3829085365544,-934.1834367495528,-93.56253154747034
-688.0239429366808,-903.4206380364345,-101.28545425808
-680.3179475152066,-884.1704353678373,-105.15925417956184
-648.5629649268609,-868.7288727547125,-81.18827530298319
-629.4861140144698,-876.649008580912,-84.80041604421491
-611.0098759515228,-873.1350665109902,-108.08278056216956
-587.0985504734033,-896.2856836942279,-80.17467738728313
-579.9095511719089,-873.3043394023445,-99.76760667506234
-560.3697490988259,-873.3848969831697,-91.62537665767617
-537.8482968189953,-900.7469421260065,-102.96992347029823
-530.6327848959635,-893.2061407310346,-118.58585755584222
-495.8155945200451,-874.1303095348566,-118.12800497621512
-511.14804749838123,-862.4045928018234,-118.3972100564413
-502.5141103230971,-846.7845798514273,-94.77313863551774
-475.26831282853993,-808.3055885547053,-94.49485808099607
-482.53888942707255,-784.9653041558535,-86.83322031478642
-470.95185409900427,-761.8758699453942,-90.66215272289723
-466.4436887214289,-746.2946062110915,-74.94873376739254
-467.07183390862326,-738.7272921945823,-94.60672094955974
-467.07183390862326,-700.1085997766822,-102.58651017421853
-455.34815660801604,-696.2948611401448,-98.4989777344965
-456.1394563892869,-692.632040503128,-122.07124757180077
-447.72373848358006,-669.3417221987122,-106.3247898109956
-455.9212371197096,-661.681614006822,-122.1721994768856
-475.05315270760155,-642.1897385957488,-122.52400157036297
-459.28528090632386,-592.0156220523829,-122.45772001651943
-467.0473607195118,-561.0743730019935,-130.52775412602674
-470.7112010727415,-533.9631780475495,-130.6735735444826
-477.6269164291578,-518.2575089352633,-111.20719103873394
-489.18845885190154,-479.55010120683414,-119.35982216149247
-520.3152962530528,-502.55795812025525,-123.6732217423891
-580.7436790341249,-521.0841622776381,-85.26979141704865
-667.1911407055418,-539.161691301311,-19.785247765546853
-736.2269480403604,-511.5110664702014,-16.987962250105795
-785.6954209643458,-460.7618299827159,-10.05091443051399
-846.343042731208,-394.3803439502787,4.515181025120709
-945.90711405016,-343.2456547342875,10.700494052505189
-1010.8987268843082,-307.85232469803657,17.45682776483305
-1072.8536248362084,-272.6945491069836,0.7117374434694825
-1118.3635594214131,-225.8100370666844,11.645770981935728
-1164.026451438565,-182.82899868966467,18.665905278560977
-1201.2868818607783,-155.17633442612922,49.411572759301094
-1224.2916796255604,-139.52369055691804,49.01408737948229
-1223.9653704374075,-112.40841673762193,52.85209526188863
-1201.062544293923,-124.22692764603613,49.31041691097368
-1188.7443724411498,-131.84828662183318,73.06847904228255
-1192.4051536457405,-124.04745759255202,76.91189142061765
-1246.1849867181966,-139.03728592332757,84.00605711430511
-1338.836401829371,-161.53528473025958,82.694192206309
-1369.7134087583427,-169.03427776049926,82.25693789418405
-1388.8228905895492,-164.98294524633798,85.8817231164567
-1404.587703242188,-176.53836937180384,77.83534642309046
-1375.4850025237977,-150.1746264014725,23.237700947826223
-1356.4061121789807,-119.47606980977194,11.645974925178324
-1318.9927243248205,-85.29681389669256,-27.15504275160223
-1284.5773021368154,-85.63311630373268,-34.487720067505215
-1273.044311768035,-70.28169660383516,-38.291363513534186
-1253.3128030469122,-62.590385095827834,-26.24790320853707
-1223.057823007857,-47.524587907185435,-45.46863607857934
-1197.6668893047067,-21.096398872193873,-96.19758021342662
-1160.0087695594318,-10.027257014372902,-123.14296931164057
-1172.2249697909074,13.069090872010321,-146.95130345224925
-1179.903432874631,-21.621450750256205,-139.1005083285322
-1121.7694115727595,-33.57140307852325,-126.41523863908677
-1096.9597161110064,-83.5302575293296,-67.00606221288616
-1064.8488525643315,-114.34179867742809,-23.25034542886715
-1043.842698576986,-137.2242304966528,32.0862883859422
-971.2766337128378,-134.09166229038462,13.539587932678337
-930.9060688410417,-169.68179755574025,-36.75577286841073
-916.5545828595903,-204.82529711981155,-59.969918371717156
-988.1254046998722,-247.3240097280927,-115.84282094293161
-1069.396786874213,-277.6830008208716,-120.8832781836815
-1100.3655682623528,-335.4081159213391,-113.30270785640359
-1107.1976668893049,-385.3334217087385,-77.91508823094534
-1106.0759790550292,-419.81002686952223,-38.535891461406294
-1063.258095272086,-416.1665808405521,-26.132777248091855
-981.8133613415387,-420.52280850239384,-9.199716518892794
-921.003604696813,-444.3821284536514,-27.83142051567049
-870.7438319915569,-479.4848393692036,-15.186327645016394
-819.6937792212427,-498.94204442903543,17.04098749318065
-798.9537711654848,-502.5834510255796,60.53473918208564
-777.778344286785,-502.2530629725748,115.7959139971346
-760.8653311783332,-463.37740206900423,151.23921012782145
-786.0676173820826,-424.1050715585853,193.90005761396606
-781.01594326299,-350.45810750868037,213.35012466030705
-782.6882778522738,-311.26225571423475,268.1374373511852
-805.2902877129295,-334.1253129254129,287.4998088032101
-834.8069932137887,-418.5200858601052,342.28712149408824
-841.2312053555497,-487.6527662351568,393.4442444667649
-813.5112398219577,-542.7378360602245,315.5522018222329
-746.4383861971214,-597.9136606282473,261.7988813713144
-696.7782066250962,-679.5103322745281,266.7424655718314
-676.0086267991619,-775.8296666037843,330.17187316769747
-697.9009141755851,-852.580646805994,381.12301346535264
-706.4073868242468,-844.0017743062107,467.30840807003415
-717.7782423151638,-778.2127433935137,459.06706163674653
-714.1439737321105,-731.954337107983,443.2675786328665
-750.4346540357819,-708.9189478568115,391.6260904590253
-780.0533311579388,-717.0980916011075,316.64227845390633
-805.6002814416748,-752.2854389623368,253.58404755956423
-794.8575711379524,-771.8884634406245,234.18802547251104
-759.2409232510594,-799.9520733379901,156.3235151657294
-740.681068458648,-862.0680864515407,148.96218382424172
-715.1239210127823,-928.2843784574754,122.09572076091224
-673.5796627798484,-971.3041660505883,107.16503597048941
-598.1736882625567,-995.4887754737857,65.20503943752455
-556.1950309228943,-995.9180759994495,54.06147869048045
-524.794909576665,-953.5315321745959,62.23807314424396
-513.8074673818277,-957.6267124859153,46.7179923827199
-495.3047166973432,-911.624254969842,15.442990215822938
-484.01747793589055,-892.4729647739035,3.7735720149082517
-489.77989425542876,-912.2309861165639,-47.26619181881683
-495.07731998184914,-943.4587754227999,-82.56173107024316
-477.79924846915105,-1032.9317350981223,-121.24731687171462
-534.3629068030368,-1152.8911503928457,-172.7103547082847
-604.0411353520316,-1280.8757322837055,-267.51235131262973
-700.5307622888552,-1424.0540857479364,-354.8163746029481
-860.255031024866,-1636.6649161538346,-474.2302417237284
-1029.6584460544632,-1852.5898242519108,-538.833342680732
-1199.227055110563,-2111.0267012690374,-599.3708350965927
-1368.6019180861967,-2361.693340743271,-656.0068932815998
-1590.7470950834384,-2561.445549703518,-690.0582767815717
-1714.6528121223866,-2689.073230919835,-793.5237823313773
-1792.5795251181598,-2759.209312048457,-916.1171246042228
-1849.38791534316,-2875.365185868773,-975.4462533077046
-1931.8931541352044,-3021.8882085115715,-991.8861180933349
-2051.842372267798,-3109.9101120158266,-989.4612329388733
-2107.569863307042,-3047.1567762691648,-943.4118684770028
-2024.03471113989,-2830.8545731722866,-911.4937312945809
-1831.2165724278937,-2490.473301280254,-752.7687844472883
-1628.3440318559346,-2189.1675546695355,-629.0833261103436
-1471.0018201934404,-1902.7802562546847,-482.4817853191458
-1296.467193180138,-1640.2237257371276,-390.48604773291595
-1111.898558631133,-1401.3246113606585,-337.5077116038607
-1020.848097974334,-1115.6205228085025,-325.3333197371172
-879.8080894087176,-865.0833872933164,-308.3683011018034
-801.5438503464486,-676.1452687717009,-311.75783779374206
-777.1991454778135,-502.23164893210225,-311.9791162119583
-749.6545711328539,-363.2688022923221,-323.80986371492816
-678.1959180759995,-220.38820596228072,-291.8244252624495
-603.236579259992,-147.13995095165018,-255.626539134159
-523.7966074041594,-62.178215802542155,-203.70360928553586
-467.914119500543,38.299827158101905,-167.88403787226017
-469.8056930756171,123.78335109339072,-128.9543320094018
-501.92573406820884,236.6893893429459,-78.79632698220087
-554.4676316581097,365.8976306893792,45.56856826745118
-612.6342838787966,475.3825210443934,122.82073898833957
-694.6571969021022,538.5182503709218,188.09685264590865
-706.4930429861371,673.7050878740448,152.1426786925199
-683.9756695711584,820.1271586117584,104.89004909933567
-655.8233443632638,962.1083652419533,-1.1317830247842027
-602.1679166687911,1049.440940586235,-137.98493879153432
-497.28908444779825,1019.8283817613559,-328.619865091545
-462.8073807059496,901.6575487041957,-531.7850642166285
-548.8806065272036,750.3765302116421,-650.3026007862013
-627.312079048401,673.3920349966605,-674.7655927355418
-648.4966833730174,658.6081893409065,-616.1635216919133
-658.9192027858647,613.6366649161539,-463.1081969887781
-700.7143112071911,568.7660923964861,-326.22047284240796
-716.8727343180394,546.5240423590116,-232.19651970856515
-771.2929491722455,582.5750893526333,-142.86734001927263
-835.4942819413359,652.9232714535545,-120.5182197794354
-962.8772312665387,661.5745438044593,-130.30545599159754
-1086.0181611457533,603.6454854613962,-226.1455237007541
-1219.1217184257623,495.00288069830174,-376.9075066409019
-1262.9695155838133,416.7294641901159,-514.6630092845162
-1378.5951369733805,312.3492731972692,-606.3089842096945
-1808.7216327696005,52.44267920237799,-627.5731263989233
-2746.12635303595,-729.4050465755381,-619.3542137223211
-3918.9631525546442,-2175.768483631006,-710.5351980543816
-4504.841102721113,-3554.842887224486,-549.824863740421
-4784.651231562257,-4142.046468467825,166.17091463445726
-4640.555133506346,-4153.355121269751,325.3516746289508
-4436.214201587698,-4211.846043246165,454.1979167197769
-3623.0517047105795,-4211.366776626065,356.4876894760189
-2701.748303447151,-3959.649829452464,326.267379788205
-1880.295513758521,-3425.155379257953,246.50313817664548
-1306.1646943655583,-2892.792135948566,143.41798677428073
-859.0884756772191,-2556.3775601250177,82.26101675903597
-556.8863985152933,-2345.8877394421133,90.00219238985791
-323.41931240535763,-2161.7371885404295,120.34996660429402
-176.94523614078204,-1976.4853441287291,196.48707764629106
-39.05186786517312,-1760.509450220004,240.99463119413872
70.01330729657937,-1556.3622643818228,234.09115243227814
186.45918840786612,-1398.7039406933052,227.4538196020048
275.1133159641672,-1279.6622699902618,204.8324351333024
341.6569368744679,-1191.089719730999,217.30458413423545
431.2655188061163,-1091.116742210643,226.15878001152282
513.7136534902338,-990.951038326034,250.60341706902972
540.4312379864684,-847.3372660388615,325.0865484135765
517.1908857764885,-722.6116971646792,406.7352255867193
513.6249381797047,-559.3133231021807,492.47296477390347
488.5307418945308,-446.63876043297154,523.1133975414643
488.71938939393175,-380.93844483080363,515.0454028643828
527.7174162430596,-354.08625779445583,523.3877012027554
527.6898839053092,-338.64571489754405,519.4108079721415
508.01343985968714,-338.5998276679601,507.3424665915476
465.1343731039653,-330.6715341120567,490.9750016570389
427.4181295345506,-330.1688140190585,513.9563459489225
415.202949019288,-326.38158800405853,494.1371416334835
433.8423416763116,-299.65482606190704,470.77850234279805
429.2801313394483,-284.3550040023862,447.11088903958034
408.6757455400163,-280.67994677081373,407.5438605436108
379.60363630801555,-365.95983337837083,364.22529610009536
334.6555653561614,-516.889049777447,320.8904161971724
280.66363131140605,-664.2319242554797,238.16083983827303
231.09828534718793,-788.2895790101616,167.1936899960741
181.88678090887308,-900.672502842459,104.04164521013803
103.22179337490377,-1152.4934610697844,-2.2514008351475785
11.3606583287871,-1404.6488862149665,-155.83711053213892
-19.198605028220648,-1707.55558728006,-308.33261103434916
-28.032304609627143,-2203.107075300944,-349.96456486159906
-56.100809144815,-2945.654224429342,-340.0304895147681
-178.1250477991975,-3703.3033706719425,-370.69947433629227
-431.1247979687254,-4234.942615470115,-337.3741287799606
-725.5352235472869,-4530.43597966686,-325.0885878460025
-1113.5504988961573,-4578.332050190433,-397.4578474810461
-1266.8750286795187,-4422.468427036756,-408.12917764986
-1202.2556122631074,-4001.2542509419636,-408.5829513646353
-1095.9909857086773,-3491.7224536411522,-447.95623378013903
-1042.7617993912297,-3085.8244150652877,-440.67851916811554
-1034.7162384708338,-2741.099152105969,-390.7012078538543
-937.2283093615048,-2319.6096526336723,-331.7932219463324
-930.5563061799903,-1854.5068907323093,-235.1465587127103
-939.434975246389,-1408.6257794455805,-138.66814865422953
-963.7450097637828,-971.3551518612372,-152.2813600974849
-938.559039019441,-658.2013225719282,-156.88537879908026
-824.7403547592705,-422.97012741354087,-144.2001091096348
-794.0336404378662,-260.0419103363534,-69.72228028939547
-791.9901291470585,-162.98226203647525,-30.772893903626628
-829.108819015668,-58.05774652914094,-12.059775764404767
-898.1741981206632,62.27151983602964,-29.1986560140313
-995.5774907843148,201.77634564300757,-89.99760366689951
-1019.5459203703609,352.35681909724525,-145.80922129371396
-1041.1608449368541,521.8397719914548,-248.74549412898395
-1015.1193322898238,718.3543819754963,-315.7367704567819
-953.7946189575441,883.8573824904531,-358.5464965100213
-905.6925657589494,987.2423304594332,-436.6679753024734
-882.4348783733487,967.7881845482403,-428.4041951125002
-833.4283368938426,851.2713311885303,-435.1261643884507
-846.1860064344094,700.4461258431779,-438.7329006337537
-894.9712694956994,674.1282701024306,-396.2046162552962
-880.7115579734161,709.4736734766715,-325.46690256101726
-854.9463884201027,717.6823889911439,-250.54121438003807
-857.571137952308,679.4012226397394,-207.2807737606624
-908.2642900480798,575.3667154430923,-203.76377254210155
-990.1118118827532,483.07322072267294,-212.52823339264685
-1061.1064940627025,405.961260981069,-244.7278122498509
-1119.5056415799484,359.9139359516247,-253.29648758750443
-1189.0400901429134,337.23748680742153,-254.2621588411945
-1289.686080363835,330.1708534514845,-267.5194893261206
-1314.0878893403967,302.9943966594097,-299.1908551850021
-1387.5176538369374,229.1353316372054,-402.081240790688
-1725.3190437101355,-20.935487653785952,-539.7347718130045
-2293.8312267695906,-489.22516863556876,-621.2386492839044
-3076.0861252313484,-1206.3548714392784,-595.2154915287076
-3840.4653984796037,-2405.724686819658,-398.53874666680264
-4715.728612727079,-3475.580345989711,-94.07024824991205
-4710.823777742655,-3836.376336465562,232.96436601693753
-3338.622261424646,-4375.0822146196715,39.48137233407943
-2553.226637026916,-3850.2546741241918,143.66679753024735
-1705.852661204387,-3047.7686059969515,200.74745198411284
-1178.9041109859127,-2603.111154165796,199.29129723198037
-742.8989512218751,-2235.595233846421,145.71336796969405
-420.287254057196,-1939.9998980283788,169.1719394492513
-144.13280783957825,-1713.622898747279,200.01631545940768
61.48746003987091,-1517.8883716661655,202.43610203280429
270.7428122753438,-1333.8295952236492,201.02481479404284
410.6376795337858,-1226.4738723213331,214.53299546736145
562.7752596452408,-1119.0365721219787,247.84610442913743
654.0204860987188,-1037.9691331902334,307.80847690087853
703.3686325095726,-925.5515390066946,374.8874488229926
635.0303110644309,-715.2197743368022,471.26898584124046
563.7490886286347,-633.0693967868742,509.1708177614171
538.1368765072681,-574.590711405016,536.061754013858
535.4825552048866,-520.1929303074955,559.3867426695151
526.6558916653496,-447.03848918845887,511.9118149419017
525.9716620864414,-331.3527045423259,468.3403608775679
525.7799554384015,-281.19694289079354,452.4705174549923
509.08516159952694,-327.74188943217104,424.90452906956006
493.0745973395605,-470.66225469451854,436.92086492329184
443.67342568563174,-648.745494128984,381.8368148144372
413.01157887759837,-760.4615235579939,409.2274120112374
373.2497845849501,-779.7810669290737,377.29907766668543
388.3629985774959,-725.9084396812368,357.72154609372217
368.2215639387559,-675.774092070177,321.92848730198386
357.23310202770574,-613.7518928482203,325.4791391555731
280.27206028562256,-597.6811653316882,324.27281487562016
208.81034808012933,-605.3963381990793,264.358369065889
154.46355279325766,-706.4859049726462,161.84527845900487
73.58119235416785,-938.561078451867,98.62297522599462
-41.56261312476738,-1271.667694880515,-43.264315540984946
-152.87789408207698,-1724.5338622261427,-161.1426939882631
-188.64749940091676,-2317.40706561364,-293.1153859880796
-190.95919605573772,-3142.5614251553798,-412.0295921645007
-292.04264453202677,-3958.8646479684708,-493.2071604472476
-598.7732813957875,-4459.137422055443,-460.79242146910525
-1336.3584914318346,-4813.876298226204,-109.57870424660818
-2361.530186149195,-5027.129549846279,-194.85859085416533
-2448.195867090189,-4733.4410833465045,-310.9614394314063
-1828.3103812209065,-3813.3817358629103,-285.15650094578683
-1614.7818062233282,-3137.789153278643,-264.61431783534647
-1582.497590920447,-2692.5402660439604,-202.8388899369306
-1476.702033823987,-2282.5531654540546,-124.14535034899788
-1340.814651282548,-1919.3200532291864,-56.61637766209664
-1245.9504519892116,-1478.1806223328051,33.58272192848731
-1164.6076896799623,-1045.1785268159872,68.66197937114103
-1074.4239878041942,-709.4838706388012,45.33250396414678
-1029.1179964615849,-455.1901005950045,-33.33911172520688
-961.2048966772549,-274.57898466856676,-111.42337087588525
-884.7934819739667,-97.69207629516707,-165.82013225719282
-820.9245766903073,75.17633442612922,-247.863439604758
-759.3275991291624,260.0572060795481,-286.81150035945
-750.6977408187303,430.15300841775735,-295.1048523195995
-761.1151616505127,592.7284036852545,-295.8094762227672
-791.0183395960905,685.8845783218532,-288.72244854257065
-813.7845237670357,717.0471057904587,-285.2441965401029
-820.836881095991,694.0994121336033,-261.724442087767
-794.789250151683,658.9018676102442,-280.8390225000383
-781.5370182478217,609.0316264983455,-221.60268797193743
-701.458704042665,546.4047355620932,-231.9660638444321
-652.4266696578343,510.9940703502216,-254.65984816425592
-620.6166223939879,495.5545471695228,-222.73355325212998
-602.7950421397726,502.76699994391566,-265.66156638607475
-559.8894627625133,556.6365680431136,-261.2767866702697
-532.5335359169543,571.9710604538758,-253.06909087201035
-564.3976281400886,560.363630801548,-280.9797433374292
-699.6772598185926,522.6840970158005,-286.80334262974617
-831.3491355355804,508.08380027838257,-304.4250585062178
-964.5750587611469,485.3696216342992,-365.21340111047095
-1030.7087537538303,493.44271489244545,-385.8544966935702
-1030.7903310508686,481.8363049563307,-385.81676719369005
-992.0390755252813,435.250569766434,-369.37996155669885
-980.8589069661914,361.69028159463227,-365.04004935426474
-1115.74288875406,180.22158433308013,-441.0160452346112
-1633.738330622588,-202.38919508700732,-416.0870429759399
-2528.6922649426665,-1034.7570271193529,-395.28789137982903
-3758.8371156307207,-2262.2914043021833,-295.7595101283313
-4354.269806712792,-3051.7658935518252,23.7283883895112
-4514.110323097083,-3787.5115355396597,675.3029831797812
-4465.785971764059,-4361.907481147997,520.9801512239144
-3893.256106825471,-4637.077901220091,538.3336817363729
-3135.1378911249003,-4399.8919100814255,470.39712847914427
-2392.855868211877,-3945.4349854435513,456.4351740910505
-1680.0130523675264,-3351.3585169247403,453.3342170873846
-1126.5212891252365,-2833.648595595846,424.5568058409345
-722.3812413005461,-2477.72684861803,343.06822411322935
-413.1849306338047,-2116.859478007271,299.38664069789377
-179.80146125333323,-1809.1499135790514,301.8451764873836
26.362111424390594,-1536.0495174193024,304.0120734399617
222.99256117022634,-1309.6827153003321,263.0225408268879
451.71490774117564,-1142.1739329944478,159.91903453268958
678.0031917117467,-1024.4782876925353,107.96653291389006
858.8957493129664,-921.6582625055448,82.85693891390027
922.6494266645593,-836.646561262001,126.69566059765567
937.8340207920138,-727.6929430539482,208.9724829579928
884.6384851095942,-614.096556928207,317.6823889911438
789.2195601963974,-534.8880606527204,437.64894229935817
668.199640040177,-537.2232107804399,502.56305670132014
538.8731116130382,-547.3724462482091,551.6797275318279
503.86421458907995,-554.910188494542,543.3313108961777
522.8860008259702,-531.9492385269181,531.764669892369
501.7911315280958,-501.36387043485803,472.47632983740624
477.79618932051216,-431.8906048446718,432.63703711257165
468.18026543213034,-451.6190544171557,381.53905768024765
476.9059770665824,-506.4869246888592,311.2112699035859
487.8669066398822,-553.0685810139039,303.6837248193828
468.4657859717641,-630.1917576338506,315.4267767280366
450.1537222191065,-668.422957890819,350.60392692713623
415.47215409951417,-687.464118735756,354.0730014836871
341.32960797010196,-683.2690062355648,325.4760800069341
273.2584521727603,-718.1636950436693,257.8556387757288
170.69743490386628,-822.2553063482434,209.57513523986276
35.26617142449257,-1003.8606455823345,117.89245053101725
-80.01682531751415,-1201.8375286157864,-55.849755013179845
-213.6662366863302,-1426.470813172694,-198.38069065379108
-312.2401635624806,-1872.402910270072,-394.5832674766613
-286.05487092942036,-2500.425731518919,-509.81119954316716
-177.7691668408682,-3348.911198013593,-544.5733252435848
-86.399229094543,-4101.104862516762,-642.7067347157288
-192.70495021235593,-4571.0308821055105,-501.4281125562756
-1075.4131125307829,-5027.710788087676,-426.7675505906706
-2167.1518816313423,-4740.538308188831,-424.46605109797946
-1734.9859534091663,-3848.6333253455564,-252.24312073949824
-1159.447925642294,-2348.457424298818,-291.85399703262584
-1058.5266120438682,-1935.8190615551694,-354.52779491467527
-878.2897319675935,-1390.9133088261538,-267.3247235294418
-663.7200267165648,-1031.7386671289382,-151.5084152080476
-600.9411980645788,-782.7810720276548,52.67221732191932
-649.1391045871934,-622.5836549688222,184.84701707514802
-629.6105193924532,-463.3335542718462,270.9436963693004
-649.8437284903612,-284.7822650956239,317.13378166856165
-645.2030000050987,-114.69156133847952,304.85537874809444
-578.379976852442,7.717120525357794,207.3287004226724
-504.55762161390487,87.40752448593558,98.27576185547562
-392.8548484956637,151.18822431717254,-25.85408880708499
-326.5212891252365,261.88861639805646,-135.12361509791828
-336.3574717156216,365.6845100008668,-218.0377600913666
-441.766556367363,462.69317249009606,-278.8128463848511
-531.5158591364024,555.7830655728512,-331.4913859472909
-620.4198171648832,614.3270127923399,-352.64437906930505
-691.1728266023566,629.9613017697176,-396.92759505029755
-702.0797112163685,645.6618723009387,-381.44524378865367
-687.0460350884349,572.0720123589606,-377.04720776207984
-628.8875405974518,467.44301061014727,-344.4264861089159
-601.4469773062158,359.2184894943738,-308.3285321694973
-609.4252369565551,262.6625810037067,-296.3478863832196
-585.1029658446055,200.9952430238665,-248.68023229135335
-588.8738764001979,174.01151259604453,-240.79680624882096
-627.6526642635355,120.18171342915268,-237.27164730055625
-647.219998674369,116.39346769793967,-245.4008249504163
-694.2258569440125,143.59235824669997,-273.66939780659044
-776.7861604115576,221.04388348722551,-337.9614853186359
-851.5854037821276,325.48321802042494,-406.1519479128959
-959.212371197096,442.24174412261067,-423.85728051883166
-1041.9970122314962,570.8381557412573,-394.13357262673804
-1065.0731901311867,733.2289823742053,-426.42390622689715
-1219.6723651807704,707.2700667404263,-436.50176155975794
-1849.7142245313132,167.10905355039694,-389.1716335343874
-3279.274777829331,-1251.7322429167964,-225.26652832516712
-4502.495755431264,-3054.0806493552845,-363.0974899685418
-4667.251303962108,-4577.0166162756905,86.97965156297003
-4452.662224103033,-5254.82198304212,194.52106478766962
-4140.782020363733,-5214.808318844866,183.3592511204132
-3322.939026069045,-5007.489815584323,289.1007632575854
-2374.929257187725,-4414.208725711635,403.33957059750276
-1562.2970127413544,-3561.2670993662473,447.95623378013903
-970.7943079440992,-2866.330500221789,368.13080919580085
-591.3303727572617,-2344.5621083652422,207.22061050409675
-203.1203316117125,-1984.7960312644996,109.78162777299079
131.74325585189644,-1732.5998174707981,51.15284016458221
398.1736882625566,-1541.423421861696,30.951140297655165
566.0760810266504,-1287.2591557769474,44.38253634013655
680.438274028338,-1013.2756853767597,64.79439971855832
793.5757878582392,-836.1438411690027,69.81619615261074
888.5939642997356,-766.7072853624837,129.8741160335079
967.0519494424702,-705.1633330444138,158.31400121346232
966.3616015662842,-661.8590446278802,240.57552783060476
920.9832103725535,-590.7756471374017,361.3191048931083
836.7964595453086,-519.4617937827903,473.63166830671025
738.6508134786089,-440.93752708621196,515.0668169048554
658.8712761238547,-355.0641656427017,529.2806411975548
630.6414524837738,-281.79449659159854,477.59020664549064
620.0710742200447,-282.45323326518235,395.0176665833899
648.88111638531,-317.9546532200089,344.5488520544733
677.5290236727119,-395.97721953980215,298.14564606669967
692.7809190702228,-477.2373848358003,310.42200955474095
700.5175059780863,-569.975475825078,330.47370916673896
680.5422850820618,-631.7947515206519,322.5341987324928
681.6323617137351,-631.5204478593608,353.9465566732778
709.1514431533705,-612.2824817853192,366.0679232969465
689.0395802848069,-635.5177354142344,346.2211866437571
665.10174218515,-674.1629404536718,330.2952588294678
620.2332090979081,-716.9390158718829,266.9729214359644
577.9914649752975,-817.9806559834399,180.33987141378554
545.4849515379871,-985.222272641524,54.82901908398893
487.54161716794226,-1268.7207150250088,-113.84111801685593
424.30187678769005,-1602.7593520723185,-313.81766454395745
320.09095868619767,-1947.6987554363623,-471.19964513875794
218.34469467147298,-2374.123681379472,-651.8178990786864
186.78345816359308,-2993.968378600236,-767.9380828315481
168.84664997731133,-3623.96944930226,-711.1368306200385
-116.85335970999272,-4099.779231439891,-521.5042853573851
-578.333069906645,-4486.027338591671,-421.1489142571623
-1151.1168441822642,-4930.225918126986,-408.6074245537467
-1668.6024279443031,-5103.2921537936,-745.443143173255
-1570.6994743362923,-4527.223873595979,-706.6735327558342
-1343.639265192497,-3675.4549208955154,-443.19619849795805
-1208.924556295983,-2924.331958415973,-267.10446482743856
-1084.223460610912,-2308.9026323974044,-129.95059474948124
-974.7905757827599,-1717.4774260323354,-94.98544355105976
-932.5967583221591,-1074.7910856408664,-10.179928925779956
-842.7312079048402,-564.3945689914498,32.61521518561385
-731.5688843794773,-236.1469003176416,60.64527641957244
-640.7356232760424,-20.01213462293444,80.89979758633173
-606.4364487363168,22.10500017845034,61.64837125827883
-592.7957049553111,21.54130105591614,10.834586734511786
-599.1658721377842,18.074163960169887,49.99709380879302
-625.45925468942,37.762946571969024,65.23532500904999
-629.8328175268823,138.07161466963746,29.50977143061086
-587.9663289706475,334.5699091942713,-25.47067551100529
-554.2708264290048,523.2887887300965,-92.32112902979102
-563.04548444168,700.7275675179599,-159.7701559655948
-611.2250360724611,773.9748028123773,-231.3817664543958
-701.135454003151,766.6144911871028,-268.0252685677576
-807.3592919090618,670.3237089118098,-312.46246169690977
-831.2675582385423,519.6902102144974,-304.4627880060979
-795.6029836896392,426.982710711609,-256.52083025294064
-744.0338953669194,403.7943640284909,-208.57479363493144
-716.2976143739198,434.6723906736755,-192.56422937496495
-716.4883013057466,446.21047962352077,-200.45581314720116
-762.4295758490414,431.19515838742086,-189.3194923852692
-836.5721219784535,396.7715784697119,-209.93713449546993
-946.6769997909583,354.5696032794074,-266.38862404592805
-1064.1044597288576,327.9703058638781,-315.1534927829585
-1115.73269159193,343.42206563913265,-363.0740364956433
-1190.9673537854417,328.03352826908275,-419.0941860880118
-1230.6139201460235,362.80789056405604,-459.0517658935519
-1282.7622072777147,420.60948438049695,-530.6705143958437
-1570.9747977137965,168.1552823849123,-459.5677422973187
-2400.901429132273,-585.6056859376037,-245.75364676010668
-3724.941748711334,-2052.2196672666,-138.97610295054886
-4448.889274115015,-3530.4716697343138,59.24744943482229
-4227.060209143796,-4087.6038198569345,684.5395726369353
-4397.036704685086,-4268.90936252441,596.2637597956489
-3667.8376407845703,-4927.095389353144,322.90945429886864
-2758.6892567798386,-4346.173259981748,318.86933866305014
-1845.992260353944,-3634.064639810741,279.11876124874453
-1224.036750572316,-3109.3900567472074,223.87053682960035
-772.835779802481,-2715.004614215864,158.65560614480992
-431.74886429106783,-2338.6579514921,142.87243860033755
-141.1644139435995,-2019.9558462879784,126.52638770630134
73.46932948560416,-1715.8254857673112,144.41424951436016
268.3719720801701,-1419.3939826546273,150.25824313093668
424.38753294958013,-1172.9489683021218,155.68823196504414
576.2497896835312,-969.0312186118605,161.19979809618985
701.275155124329,-803.4915083132365,178.21274339351362
803.2345398275661,-687.9647993963281,206.82292118103533
846.6295829870548,-583.7681573218174,214.970453722729
879.8274640167642,-479.1401752892171,262.2098270051445
858.8875915832625,-420.4860987187267,312.71841046636723
817.7797718894832,-373.49451647606475,339.41662035455533
806.7372650191453,-338.5182503709218,346.9829146548516
764.0213528574999,-288.0688104500518,326.54984117919986
725.5678544661022,-276.1646433797475,325.9329128703482
724.8051067387947,-326.5610580575426,314.3183452045296
712.0739498197653,-415.58942146400665,298.72892374052304
719.3200532291864,-520.0358940106969,307.0396108762931
711.9699387660414,-643.4674430106103,342.667475641529
738.8914665048718,-728.6504565779345,359.05635461651025
793.0577720220464,-736.7368061468494,367.7443367510822
867.5001147180741,-717.6844284235698,400.1917066480399
904.9706066801609,-675.767973772899,361.36601183890525
889.5565764047867,-656.3393207670306,357.14438671717664
843.8151662392357,-687.7486195591767,266.298889019186
772.2178317774164,-753.4265014046591,214.42796469742473
665.285291103486,-853.7573993157706,150.37143163057723
554.1280661591879,-1032.3810883431142,-19.450169017962303
434.2594056074195,-1412.0214344347971,-176.94931500563393
379.167197768861,-1993.1780985351777,-313.17626304599435
363.48600184568636,-2759.770155965595,-385.3925652490912
302.5018737285414,-3669.6629328058,-512.7490019527565
15.365491783636617,-4677.907338387728,-588.2171791590401
-364.2711833296794,-5236.467091208518,-646.9640499049116
-911.1551855118722,-5575.86943553609,-575.517633442613
-1743.1946689236386,-5744.153202163839,-654.1316351659334
-2057.715937654551,-5320.389735536601,-703.444091509333
-1753.4530140261966,-4198.844661530697,-490.740466928054
-1450.2098066108204,-3065.9705403986077,-309.4869297874402
-1313.5372425853886,-2373.2875140848305,-176.33952471027317
-1213.452096281605,-1898.0793645128565,-164.66989236895373
-1173.2140945174958,-1456.69520172536,-94.91283975669572
-1086.3750618202955,-1028.1594632213857,-122.53011986764086
-955.5342548168845,-680.6493552844245,-86.42094904987943
-910.1793170960523,-452.3797627120373,-47.265376045846445
-917.7343945180057,-289.0864872306038,34.48751612426262
-933.4859508598759,-156.75077625896714,108.37339968286828
-893.9454349854436,-13.905869996380009,108.48352903386989
-825.1319257850541,139.89690669086795,61.89983327639918
-718.4390184211735,316.40978315734736,-7.740655575553324
-662.3587055722393,497.0402736918316,-93.8516210938496
-687.6099381542118,658.8845324346236,-188.96667057557883
-754.7031861033075,801.8834158453703,-265.02220432053764
-844.0435826709429,875.7659343404731,-301.9308326492737
-888.341074678917,894.9233428336894,-361.5281467167688
-915.5042751602231,848.741415264132,-357.85512891762227
-902.52532720144,779.4935069570139,-302.4824991204948
-821.4374939454351,724.8438559548879,-285.3849173774939
-778.6665171082889,682.1310029418813,-264.9773368071666
-766.0138783376588,605.0781867406301,-217.43204866085773
-765.8486843111564,531.7432558518965,-197.55879938613086
-792.6039983072711,466.35497341089985,-178.1158703532807
-808.643114621201,416.1115161650513,-186.03600617948027
-821.8667944710988,373.3028098280249,-225.33586902764964
-881.9576511856752,319.1079522568869,-280.99809822926284
-991.0530099473317,265.5738707917587,-305.9995003390557
-1095.5830992234862,254.66902561017272,-319.3016983373527
-1228.5438962336784,251.33251416130892,-376.2273559268456
-1263.5507538252104,340.34252267593934,-404.5244808369831
-1324.9580641707414,394.94628644848143,-409.55270148317726
-1463.8740038647247,311.0083463772033,-399.5768177716142
-1809.6393773612806,-79.96604345010785,-293.54774566238217
-2529.793558452683,-952.9349981900039,-332.7864255377729
-3637.990547230706,-2374.8578770528165,-230.77605502388687
-3923.8170017284197,-3583.598884430463,-227.0551105627304
-4068.779858565362,-4285.8366516598435,291.19322092661616
-4261.322673899854,-4380.864005547256,312.17694115727596
-3932.882278861793,-4636.18055095267,172.7470644919519
-2957.4829324998855,-4737.275216307303,109.20650782887124
-2129.6875079665333,-4217.62783417375,104.15483370977857
-1437.2288192196113,-3666.1653061952866,77.34486292464808
-949.4669433496659,-3256.137416956861,63.64477166004701
-621.6954821473184,-2813.4888060652725,94.53360729708923
-389.1604166560447,-2413.3113754442143,53.49584210714159
-111.04607587708341,-2024.2386543824855,107.368979213085
73.71446926320405,-1700.3156021679167,148.29019083988928
255.73972763379956,-1391.5353357160704,224.5425298139528
438.4545181076107,-1087.4457638439224,210.55508252053454
652.762156291904,-829.7410430677143,228.5948820443271
815.9402038412711,-680.0426241377025,238.38313797270223
930.1157887759838,-568.3021215195812,286.81150035945
988.7882202383078,-502.87712929491727,299.2438804280769
971.7569200491505,-475.1347300046398,357.76437417466724
941.6650946041717,-428.369524761259,368.93026670677557
920.124609321226,-377.5896967873841,403.7576542448237
889.1874391356887,-354.20760402380023,395.3664095282283
847.7257779160061,-338.2000989124727,418.23864418532327
790.5513095705466,-326.0104113025346,433.0398250166979
763.3044923597763,-325.87071018135657,424.7821631240026
763.3310049813138,-322.0019068693183,424.76890681323397
744.4193480954251,-348.7980095139523,440.2747115477763
721.6531639244799,-375.56352067219694,455.7223924581789
673.9426817516686,-506.87951543085563,439.7526168467316
669.2183365369418,-611.3392442883146,436.1091708177615
633.2029796107744,-723.4019772297371,420.2495245573158
584.9999745070947,-789.1889687100081,376.57813830411
528.7330535911857,-789.3541627365105,309.01786032947035
453.5004308301001,-824.0520463155104,256.9878602784845
378.9581559452005,-921.3625448037812,126.68750286795186
273.89067622480667,-1072.4253440267576,15.733405393279053
205.58498569848012,-1243.5439217265837,-141.69772552298699
101.86404123732366,-1538.1603299801666,-295.31695329189887
96.48320272468173,-2038.6880331203827,-458.54292750327585
197.15193261715268,-2899.675220386167,-599.3422830426293
285.08104194602646,-3786.899705811873,-657.8260670055524
64.42322301703437,-4632.213854884186,-626.8817588065242
-527.4380140007037,-5049.175814370861,-614.7175641019105
-1294.2850004843654,-5250.804301162987,-472.46409324285054
-2046.5194536360534,-5283.822712139213,-499.3193394278373
-1913.2323474377083,-4592.985372170926,-574.2205544197051
-1458.459310773812,-3716.84520198029,-413.3796964304834
-1325.2231903861157,-3028.8834617326,-378.38303600108094
-1254.108181693035,-2464.1442286611637,-332.12768886418917
-1103.404322577027,-1973.7423075158185,-307.9767300760199
-1012.478267298211,-1428.326696680314,-241.73596488097368
-944.7793079186064,-917.5131160997896,-171.80280727873435
-949.5291460386576,-568.1440655065695,-47.46432267899844
-989.5315933575687,-299.75067938592696,76.6189269526291
-1023.897049451138,-132.3459081337664,161.8809685264591
-1034.8182100921315,-34.55084050108855,271.27714357094425
-1014.4024717921003,31.239618014306625,290.9841791029557
-979.9676749960488,112.00970769834757,267.6795847715581
-921.1789958854453,226.6716972666507,162.208297430825
-862.608536044419,406.931011099611,36.88986555041732
-810.7916566819455,606.7994677081368,-65.04830905558984
-782.8585704598412,814.3779986029889,-190.9184074072186
-774.8741925122239,983.3154033232552,-328.7299944425467
-763.4982384402422,1086.456639117334,-466.26931724900965
-783.6651659843067,1074.7910856408664,-490.0796908220443
-791.4517189866061,966.6981079165669,-470.20848097974346
-817.5493160253502,762.445891308449,-403.19171174662097
-832.0323453982758,604.4602387155655,-344.006363029169
-879.4256958288508,485.8050404572408,-242.27641447385193
-918.5950350017591,440.5979615872903,-140.66985158030522
-919.0926565136924,414.4351027109156,-38.5493517154176
-921.2554746014185,383.99453432109846,16.465663605818502
-960.6338555979872,341.59881305032815,0.32035200603672004
-1000.1509179995209,337.7881335624296,-27.731080440313463
-1018.7281079675527,371.8711282650039,-126.23984745045455
-1075.8413933402335,444.86955280345484,-233.3059709482851
-1158.061111592644,486.6524246302255,-391.6638199589055
-1288.6357726644676,390.2321383958845,-471.7870016774332
-1573.8911860829132,-9.228696853665626,-396.2199119984909
-2093.304033487481,-800.560843917138,-216.8732441761458
-3069.6721102517176,-2121.886678937252,0.5872606853512669
-3517.6028511265317,-3031.0758515905027,44.040319579061155
-3710.268032406582,-3508.343827912692,584.3616321577705
-4031.9783004389883,-3870.2309147364294,933.979493506957
-4029.57177017636,-4455.762161390486,790.7797260022537
-3419.699897518521,-5016.44292393427,499.610978264749
-2512.9886352628064,-4711.333635849143,370.8769049573504
-1812.576160054657,-4086.4923291847886,336.09030606782136
-1200.8891925377168,-3409.7882559283757,397.9146803444602
-726.0899491671469,-2883.166014898054,430.72201006459903
-391.80963937736135,-2475.6364303814253,434.3542392152264
-104.9716263963739,-2083.504560680763,405.93168921089267
129.09199369815383,-1717.6915664370606,416.0523726246986
345.5338979162099,-1394.7984275975998,371.11041997012234
550.7436280483142,-1141.245991240638,349.781015943263
766.8051781189297,-930.4390388154977,316.98388338525393
948.9499472296861,-746.2069106167754,311.2418613899752
1012.0214344347969,-642.0561557718488,331.45875502847565
1047.493282619447,-510.82173831022834,327.6225826352527
1029.0160248402872,-437.09931526056306,334.94618447686014
1012.3161324203475,-387.09753075719027,287.4314878169406
954.5675638469816,-340.2945960139293,278.55995676403256
865.2026940902348,-366.82761187561505,261.61227330433945
801.6111516165051,-390.0088205452423,209.7178955096797
762.8598960909179,-459.28018232525886,217.21994768855828
737.6596493195945,-535.8649487847533,283.81965299057276
722.5484747594745,-628.3552487342773,311.3774836463013
711.5620522808504,-701.4984729749712,342.8571428571429
689.5331229318881,-739.6644113943091,381.90207665206776
709.6990307597396,-708.6925708575304,401.72230068371977
731.2660286642229,-697.6755568925169,354.91324764318097
734.5729683429103,-659.2230782173322,331.2854032722694
688.194235544248,-639.5915016850811,322.67491956988374
609.6801660097994,-631.6346560752143,278.3009488459362
515.5063145926489,-658.3777334767735,233.8097107574962
412.2376142719482,-785.8198263423291,169.89899710910456
345.81533959099187,-1018.253939928518,79.42192287886282
234.98748298348573,-1324.2442628216568,-54.64292087512046
152.97272768988392,-1742.9703313567836,-223.2179184532945
142.1484400891232,-2269.9086844131284,-315.7928548484957
148.3248611911305,-3016.697852987514,-317.1062493308113
-44.72261169716469,-3874.636088776494,-375.97242687360114
-377.1083907348586,-4464.1952144718125,-398.5856536125997
-958.428209429316,-4826.439201970093,-315.8050914430514
-1932.7701100783654,-5162.476482794839,-242.92393426909294
-2626.217923551876,-5220.855235987825,-457.1948626697191
-2164.4088450184317,-4465.6534086563715,-401.804897696971
-1635.9817062911395,-3431.630577210363,-260.01641743102897
-1547.2460014378,-2746.7381827637373,-174.6559732426466
-1442.8168640667304,-2259.844085391036,-151.18618488474658
-1332.5855414438163,-1710.706510378162,-84.66938251084724
-1188.8565412245773,-1212.3406056094589,-41.02685422646878
-1079.5021745448244,-767.6902917917945,21.90503382908537
-1056.0792931327212,-388.32832822625465,64.14708386655994
-1062.0650273029019,-202.46771323540662,75.2041726787435
-1021.9595886464798,-36.30719970632173,87.0184007790632
-999.3820519749355,117.85268159871109,39.74099208190361
-972.6022647897091,264.3481719037592,4.326319385315067
-949.785094808115,453.32605935768083,-43.064859049726465
-921.5328374113486,634.9487337673926,-43.25442429371906
-855.9732426465716,796.6553308214325,-74.21484400891232
-772.5084508981151,919.2527519591298,-136.17188336485958
-688.5521559350034,995.6305160273897,-174.41837936502276
-621.1264805004768,990.7470950834384,-228.3368938424437
-573.2110353688569,931.8849964055004,-278.4406499671142
-581.2973849377719,800.5445284577304,-262.41988854501795
-636.961653571811,692.3975057741432,-290.36113249682614
-676.8855827423229,630.5557963218837,-318.2228385840221
-691.8896871000801,592.1583823221997,-298.6952731054948
-663.9606797428277,592.1899935248022,-270.80501496433544
-668.9868609565959,580.3398714137855,-302.23674751316713
-662.2067678565056,564.6005516664712,-325.63005715509377
-667.1228197192721,510.2965844605447,-345.1433466066394
-713.8543743276247,460.3264111597743,-349.59950645735296
-801.1380032936835,394.6995151249408,-409.5547409156032
-863.2020108803722,375.76338504994067,-418.27025538792554
-970.2446809053041,375.8143708605896,-506.21466045999404
-1040.3756634528613,422.501057955571,-538.8200863699633
-1142.99990312696,431.3838058868218,-501.14055258421587
-1346.9023570740264,324.91013750873134,-472.43860033752617
-1915.0780337831984,-64.06397699520224,-338.35101691199344
-3215.226402492187,-781.4544212345705,-363.2555459815534
-4572.244344398954,-1868.0385248785265,-619.3185236548669
-4719.277225148241,-3094.267665308745,-719.4240642829101
-4886.316937996156,-3904.320027736281,-593.6063793446285
-5047.228156404073,-4335.496831231869,-924.229986794675
-4463.664962041064,-4842.611901107923,-874.5320777227699
-3156.9802124068874,-4730.89179281406,-647.3311477415837
-2230.894342104593,-3895.703425736618,-326.23168972075075
-1610.1930832649275,-3052.6734409813753,-260.90866911738465
-1132.4866289711574,-2473.2400972809273,-377.3704578015939
-683.2241387221937,-2063.905615067327,-501.5341630424254
-320.9495597375251,-1788.6332233739354,-551.9815635308695
48.096342787802165,-1562.857856658492,-507.9685723463161
273.4399616586704,-1393.1974731432244,-375.653255698939
484.26832812428313,-1211.6166070982447,-220.04762074714608
668.0415840271653,-1060.7393962260305,-60.81903606226388
806.3120433583334,-978.8276322699394,133.28200761728013
891.6806452764198,-1005.3708452937549,268.08747125674927
961.5332452978338,-1013.5071609571057,284.85976352781023
1017.0160044459628,-937.2976500639874,203.01632055798873
1025.324652149307,-779.8636639423249,77.02232668648315
1013.7641294427762,-625.2991592439824,44.93073577623348
957.1341895550469,-574.3541372436051,67.45830635334187
898.8064221727094,-623.2474902234709,172.71443357313663
845.4242784233148,-729.826189371498,321.4094517495781
840.336914236768,-802.4860681272403,411.8450235299517
884.3886546374146,-779.2243018767878,455.5969673639827
921.1953113448528,-728.7544676316581,506.9988222277741
920.7853854272358,-690.2377468350559,487.23876145268775
915.4043429713512,-675.1439074505565,440.012644481041
894.7744642665947,-694.6459800237594,404.4469824047968
812.1896876099382,-775.5380277668726,372.0862883859422
737.8024095894114,-825.4714912839758,347.5927049502124
650.4637159478518,-860.2173015249857,279.6836840307343
588.8443046300215,-899.3468717655878,176.85244196540106
492.46378732798667,-988.4343787124044,81.51805152626025
380.59683989945603,-1132.4866289711574,-115.9029841994973
257.1724289130335,-1392.300122875804,-289.5586158372125
132.33877012027554,-1742.2871214940883,-596.3677708493727
11.66371798728414,-2281.472266268298,-855.3818072430444
-122.10285877440309,-3051.6537247683973,-999.9979605675742
-430.14485068805357,-3944.303100447146,-1146.8136417634973
-957.4686564729036,-4447.981726685463,-1255.0463206089746
-1499.7476202372882,-4673.369601239976,-1407.626457556862
-1908.1337663728186,-4851.697572565556,-1373.8942452315523
-2053.749241586067,-4864.8213202265815,-1238.6696782285492
-1827.1377075759817,-4378.161757582865,-1134.8727649095258
-1683.4800874916511,-3704.0375663452865,-907.3710186455111
-1653.745162721215,-3164.750449949779,-716.4383352113108
-1456.2669209159094,-2669.7190171975144,-566.0148980538717
-1201.8273314536566,-2198.5081551804133,-434.2808196478921
-1000.931000902449,-1668.847159835418,-303.5460631306308
-908.6375061820297,-1258.2584266798551,-170.11109808140398
-929.3499819000374,-754.4319415906555,-93.6290170445565
-923.4845742429884,-468.17618656727836,-94.5068907323092
-936.4206941208263,-270.4787057761825,-63.970672961714754
-964.8238695171136,-138.32756343909492,-21.67111092982823
-1054.8556336771478,-21.141572300428795,23.68046172750124
-1101.7625794741325,84.31645872953558,93.26528427138729
-1130.98764613808,216.26243416457203,112.00562883349565
-1122.7891277857373,343.7677494353322,99.92423508537574
-1106.2799222976248,493.5416273651044,-10.223062921588923
-1066.4600041808364,708.8363508435604,-128.09165209322248
-952.6576353800739,877.4158351730714,-213.29709941723223
-828.6866565034952,1003.0754640983415,-329.6028715208558
-788.8636792380681,1083.2037443979343,-419.54286122172203
-788.637302238787,1089.9848572142373,-525.5270658175831
-831.9793201552009,1070.7632065996036,-549.6596697139187
-912.6276557234123,994.2222879372672,-527.0617387181148
-991.367082540929,898.8472108212285,-445.50177685550113
-1046.2798203260033,788.0244527947873,-339.9856220013971
-1067.8366210683569,680.4607077850235,-273.227860686371
-1097.5715458387933,545.8061621450751,-214.34944654902546
-1154.6144707927785,442.1734231363412,-171.68350048181594
-1175.1617524842839,357.0393559472399,-191.32731360862275
-1219.5398020730831,306.6623158774913,-238.91746926830265
-1265.987875574228,290.5232673746897,-353.37245644537126
-1294.213620349457,305.86387808272957,-393.0934620895005
-1315.7704210918102,289.9909755115152,-456.15679156490756
-1333.3095399550307,258.6816089082409,-511.25817684938283
-1510.0671483126248,189.66517618146872,-596.0904080394427
-1871.8318691908046,65.13620859314854,-561.843239026579
-2793.4309881559966,-417.373924836718,-381.71342915266683
-3862.4198885450187,-1207.0686727883633,-501.0263443683623
-4732.095057945374,-2196.540102889366,-718.7204600959553
-5262.520840450104,-3368.102257141838,-667.7683000820872
-5315.240168661062,-4726.894505259186,-797.4119602514621
-4953.342884675195,-5575.655295131365,-1071.7013455155432
-4077.447446375674,-5719.272126567177,-1219.0095496423346
-3096.582421112205,-5077.39136198396,-833.638398433716
-2155.1906104531113,-4199.864377743675,-524.2269276460362
-1406.0764889131356,-3257.085753034931,-441.61869751648123
-904.7299536538983,-2739.498197651594,-530.0454283572882
-546.364966629787,-2414.004782469039,-592.4938689562696
-245.33046453172088,-1989.4051485471596,-440.2818495612671
-13.193598221614927,-1575.747069590533,-273.36654209133604
220.1536712332958,-1267.0483804357248,-161.0223674751317
460.1204284847528,-1113.152809573096,-48.05820540143679
683.2832822625463,-1040.5898038575867,41.3815115253425
894.6143688211572,-987.3188091754066,126.78437590818477
1022.7039814819536,-914.6915613384796,140.2313736087247
1062.8196173005056,-883.6972870450154,179.97481300953947
1005.8909005623736,-875.309101477059,202.64106499161286
927.1484145962179,-816.2083892052842,252.2818699555914
862.8114595708015,-784.5135698735044,278.6843621420159
863.6578240275733,-857.6771884384577,318.18918794899383
912.9376494521575,-974.1257208118982,319.32107294539935
990.9082102450889,-1059.4545537976783,363.94691357395243
1023.6421203978934,-1078.5232469803655,423.37087588524116
1057.4966986687607,-1074.1384672645604,510.2048100013767
1048.0337322123253,-1027.1805356569268,560.9254944348988
992.3082806055077,-1003.0458923281652,614.9541382633214
919.6922496469234,-994.6057012333468,629.5360801089057
822.7845390627789,-1017.1771196076132,616.3868395425554
736.2901704455651,-1028.5367582201873,568.033936155568
612.660796500334,-1020.9398724335019,444.49327752086606
487.03991679115705,-1025.4266237706047,266.01846706061707
350.4968567247735,-1119.485247255689,13.115080073215626
198.4072032753285,-1367.9289053856312,-212.02857244828766
26.288793828677484,-1763.1709095358765,-429.12717390750163
-156.26029276052475,-2294.1983246062623,-696.9444203678117
-335.1144376520015,-3080.1853844075195,-916.7503683724821
-579.1814737958426,-4049.966094435919,-979.9289257799554
-1020.7461263530361,-4781.908194949347,-1011.5462466795491
-1432.4769416671343,-5030.5965849704035,-1060.0459892012054
-1705.811872555868,-5100.793849071804,-930.4655514370353
-2112.097403292664,-4981.232123100142,-897.7092075275452
-2181.305542667476,-4494.062702349936,-994.5802083280225
-1858.4124038280147,-3760.0097892756453,-831.3103863194873
-1642.2835524873428,-2997.8127087231624,-642.2621384468704
-1460.5395318482867,-2433.216235921543,-515.8570969699134
-1256.2291914160292,-1849.6326472342748,-408.8001509179996
-1065.1649645903547,-1370.661744836412,-329.06140221176446
-967.9727531827895,-972.4156567227342,-274.0048844406602
-990.07306266666,-588.6566768468336,-212.83618768896616
-1031.239006184579,-356.30821942253476,-226.01092116064103
-1060.4334813621372,-162.56621782158027,-219.25224210102328
-1107.2588498620835,-26.192328674929772,-153.69570648488528
-1131.45671559605,98.29391280406664,-99.53307194607741
-1127.8571173642376,222.777401049288,-21.406800487424352
-1105.0358685177916,392.44594229425957,-64.80816588743353
-1077.992994549617,558.3190997945272,-96.35951114804752
-1033.227452799886,735.2398627461978,-174.77833918820394
-981.7052714229632,931.170175340203,-284.55690781255583
-947.7915496117432,1112.2146706571561,-343.52913584149536
-809.8055911039959,1219.0911269393728,-384.99385620981684
-741.6161482259489,1206.6811806274316,-415.3273543972713
-775.9693677249622,1176.1304828866128,-400.0397689323062
-856.5901709554232,1103.4553083876758,-377.455094247271
-974.6549535264337,1031.3511749680065,-324.0352209979963
-1027.455859034431,943.2364772883708,-273.50930236115295
-1061.5653663585424,812.3436647580979,-230.40793747100182
-1113.152809573096,677.1884384575774,-246.42258059582022
-1203.7749894204444,530.6215680176208,-274.7584547220509
-1289.8798264443008,438.25567344608,-295.359781372844
-1428.5918228956884,337.92375581875564,-387.3646964049905
-1512.8407764119247,291.3716712638873,-474.8114799651258
-1587.9428754977491,314.63649666297874,-534.8839817878685
-1661.454217291328,330.5736413556108,-547.8129636522157
-1730.0199354519636,283.9705709900935,-627.1754370758619
-1895.2445534407775,153.06858101390387,-699.8516312910118
-2432.859335247001,-337.61580152243636,-663.0786252186017
-3562.4397730111714,-1164.199803194771,-634.0391469054164
-4746.575028169661,-2320.7619319543373,-777.3877929772145
-5012.812734216069,-3382.6943961495517,-350.0094323749701
-5204.00952414943,-4263.219346055993,93.5792548933632
-5047.452493970929,-4719.623928660654,-185.10908414188333
-4446.411363717478,-5188.71378095476,-194.14580922129375
-3627.1917525352696,-5154.838808359634,-13.230613920146025
-2643.063635390271,-4414.708386655994,112.82752010115586
-1843.300209551682,-3650.828774352098,137.92885439982055
-1238.1904116084495,-3167.8707815614916,161.06213640743783
-841.8409956509104,-2857.2652230884146,197.34873784625742
-525.4893363177029,-2568.9812525174248,263.90867421596573
-249.86412281462074,-2256.7747395899723,372.94896830212156
32.723407075810805,-1889.7482830528265,560.4003405852152
272.1887698653465,-1646.1584740966591,751.5471644241409
530.6317651797505,-1488.755079461386,841.2291659231237
757.2106682710203,-1342.956055329802,903.0005149566875
967.8932153181771,-1194.2916286397497,838.9368438763493
1137.0855490916879,-956.25519417946,781.7980655983441
1192.1196331061067,-705.3764537329262,762.1532327553243
1189.376596493196,-508.11031289991996,753.5978137284395
1154.8592026838933,-407.39192282787707,737.0427210107429
1095.317973008112,-384.2127535906758,681.127602188311
1024.6210479623521,-438.07824282502185,652.7774520350987
922.6820575833747,-511.11847572820494,616.175758286469
771.5529768065549,-552.650497366583,598.3531583160408
681.779200848404,-598.5958507747295,573.6158627054092
547.4091560318764,-687.2489586148175,493.4100839736302
440.9130538971005,-783.6080618763799,441.12005628833504
372.27085702049123,-899.7455808048621,373.7647412725039
307.0997741328589,-1012.1468595289932,294.67555179393577
258.10546924790833,-1074.2710303722477,227.43240556153225
178.93674190472794,-1101.232327043384,171.39288136111722
121.44514181703234,-1198.2583247082339,88.44223052724428
33.371334757536985,-1279.5297068825748,8.904702421316149
-81.89453075209171,-1391.5455328782002,-70.936354412567
-188.27020440211493,-1593.1434281839365,-209.21109655182966
-342.714382587326,-1821.8657747548857,-395.21039294764273
-435.9653908317316,-2136.152508756813,-576.0794970759638
-502.41621756665126,-2849.4643940591336,-790.5227575165832
-648.1499798606048,-3735.5264030020453,-923.1531664737704
-1022.1941233754648,-4465.592225683593,-1118.598094150398
-1455.76725997155,-4667.434852880444,-1140.1141062442323
-1450.2709895835992,-4653.474937924776,-873.2023677810467
-1678.8505758847314,-4633.590471771707,-582.3466729209262
-1788.2559283751334,-4319.324132094039,-581.1209740329267
-1665.7676168722246,-3727.623602351466,-502.79045341681416
-1540.8727751066879,-3051.347809904504,-483.577980248097
-1308.4590558447585,-2430.0653128234417,-462.56876711211277
-1043.1390943900312,-1925.356773210016,-468.1466147971021
-831.4847577919066,-1439.472194888163,-462.6911330576701
-739.2106376795339,-998.9823232194482,-447.09661301259865
-718.5134577047208,-615.4476809104027,-373.51287136789836
-731.6239490549781,-320.2500344154222,-256.966446238012
-776.2691642915777,-125.40062100717371,-140.55360393202574
-832.9082816252237,-50.29056813488807,-12.142882635762469
-856.4208980640688,55.05733354407469,65.64198783478558
-873.973273238058,163.76948295289424,92.48469151035268
-878.6466326421358,279.4511887341753,44.92890028705012
-909.6684392733504,445.70164123324486,4.657196902102145
-918.8795358251799,619.1696450877721,-74.5583864010646
-966.4615337551561,816.1482259487185,-154.42786272580344
-1041.262816558152,978.5155991087681,-234.58877394421137
-1059.046667312487,1066.8576935038982,-321.49510791146827
-1041.9868150693665,1042.9861369580847,-380.02783825261434
-1019.0584960205576,899.8720256152715,-355.6535616138029
-1019.7366073021878,725.9165974109407,-339.3788908546752
-1069.0908720103196,618.3559115498158,-296.5844605446305
-1102.252043256362,642.1775020011931,-257.91478231608147
-1146.5791070345124,700.9417079226853,-215.60675663962724
-1114.8863271351584,747.2653760458466,-199.5900740823829
-1073.2003283486206,742.8979315056621,-218.57413081939296
-1090.3111664023902,696.2510133429868,-257.91886118093333
-1155.0937374128782,638.0119612711783,-337.18548128055966
-1291.8784702217374,503.40840144187877,-366.2524919314955
-1430.7740155914612,375.99588034649963,-458.16971136932597
-1556.0461523557997,214.25563265743145,-483.04772781734846
-1603.4935477456625,160.2453437208425,-507.12424732197036
-1600.7403139706223,112.59910366944881,-640.3593479934534
-1766.8724793889864,85.74120622230834,-760.4961939092351
-2258.457271341386,-359.0125068193522,-738.8863679238069
-3169.430947367348,-1372.9153176670934,-698.0916011074119
-4067.4134388399716,-2325.758541397929,-739.7245746508747
-4494.032110863547,-3080.9807630536425,-335.40709620512615
-5224.79134056992,-3833.776060122468,72.19611182207993
-5454.6659664615345,-4389.766128086554,-0.014641901158907478
-5075.423309692913,-4963.968327614426,-274.96953597813734
-4425.089097704109,-4966.354463552793,-402.58192145126014
-3375.1892848220346,-4505.718058664274,-321.69089342436007
-2428.7498789087003,-3896.3866355993136,-144.73546012144823
-1638.225081959691,-3262.143545451301,84.74504545385021
-1052.3267374689626,-2790.616571408177,111.55389455114644
-585.5587789918067,-2387.594132552911,160.3564927880571
-230.56497376780047,-2045.4997374230754,219.46434307332274
128.7463099019543,-1734.221166249433,298.3648850524899
381.6083983827302,-1526.0257070457294,438.811418782153
784.9092197641397,-1271.5963147456064,687.320338749726
918.3523425430703,-1198.6254225449059,744.0185996237249
1019.3032279116724,-1091.0759535621237,745.1678197957509
1062.5340967608715,-913.5443805988795,733.4421030627177
1051.6231332820078,-743.3680206798449,717.0063171419395
984.8215241698236,-572.2667781556394,754.6746340493441
934.5066867890666,-486.9736352373135,730.0851972895945
882.0300510367966,-470.73975312670495,768.4907690189821
808.2433858657137,-551.4176604650927,767.6576608729791
721.3972151550224,-671.0008004772272,731.438360704216
681.1734894178951,-717.4702880188445,691.7469268302632
641.0568338831304,-690.5365236854584,640.0350782377266
577.9282425700928,-667.2584419755982,591.915689863511
534.1762987360618,-667.273737718793,552.0141944496847
535.3856821646536,-733.618513967563,489.46174279697965
552.4465541239873,-815.4211682888653,442.89844136376854
535.0705898548434,-920.0654657808733,407.66928563780704
510.20684943380263,-993.7001932362225,372.22395007469424
415.7342211662494,-1043.6897411450393,323.88124384983666
290.6242192797745,-1085.6714576333409,278.97804041135356
170.49553109369666,-1186.3174478542624,167.6291088190157
52.675786328664735,-1357.9050950120582,-84.73260491605187
-76.2116522971657,-1614.2311594683201,-305.5773378268828
-127.88362998577497,-2850.1679982460887,-541.5835173071334
-269.54464572509477,-3801.858942656259,-654.3090657869915
-811.9123248000083,-4626.860344766053,-797.0122314959748
-1497.1779353805837,-5102.262240418492,-911.6375112806107
-2208.246445014353,-5257.503836682252,-725.5342038310739
-2661.0208379008127,-5172.408518709243,-693.3570587305553
-2307.8625218601665,-4737.101864551096,-595.3439757715429
-2167.1212901449526,-4013.5010426598283,-462.2404184915339
-1994.2386033966748,-3225.148241244462,-415.2151856138437
-1683.5310733023,-2546.2211866437574,-369.6797581233143
-1457.7047207762082,-1940.0508838390278,-313.3975414642105
-1286.8410721296266,-1302.8200251869907,-293.36521646025915
-1123.8904212957534,-812.338566177033,-249.40830966741962
-994.6475095980791,-433.3355427184615,-154.55940611727758
-958.5893245909665,-134.8951986662112,-64.76013725380227
-942.2330765348005,5.247592195092107,44.90146992092101
-878.5354835749212,179.06930501241507,68.81697623551366
-861.0177787521734,356.12976908526366,-17.85961566895933
-870.7275165321491,580.6733186154295,-10.913308826153681
-799.035348462523,764.1008907221121,-202.7644506533832
-775.7939765363301,1020.705337704517,-474.08136315663353
-808.1465128254807,1340.1008499334637,-695.4219840618356
-859.8012573100907,1583.3949411878675,-791.2069870954914
-955.0488698995072,1680.9613884455957,-781.1892950191963
-1038.5911600801498,1566.0699627293727,-723.1837579601598
-1133.0984586989443,1304.6657115324806,-617.7532592679459
-1234.9273197269201,1058.8631183941511,-504.63512004609123
-1274.1252109537916,874.618753600873,-375.08833291694924
-1280.2740997180485,728.3159896600777,-300.118796938812
-1291.8886673838672,624.121387017993,-280.3179475152065
-1291.633738330623,562.392866065374,-260.48344745657283
-1333.3911172520689,415.1315688843795,-323.40503637837594
-1398.9078839359008,291.05555923786414,-410.3103506294199
-1506.9876053494313,202.02311696654823,-509.74389827311063
-1590.176054004171,171.1858789698827,-569.7552171230748
-1654.255020827704,155.60563495179295,-637.381776651558
-1711.6446492941016,98.2261016759036,-614.4993448323332
-1779.1294682689809,76.06236584358574,-556.5662076244182
-1801.400070360419,94.76814202607416,-647.2291761202858
-1953.531532174596,64.56832863414112,-696.5018635313793
-2391.7545747018607,-75.65662076244182,-753.6131094716341
-3356.487689476019,-488.5103475702713,-609.6862843070774
-4688.695935921034,-1312.1096398872196,-426.70738733410496
-4966.476829498351,-2253.3586902764964,-357.0495531093697
-5150.280676887623,-2808.747125674925,-322.6076182998272
-5866.610922180357,-2991.3477079328827,-171.81198472465115
-5669.336623617648,-3853.007907899232,-303.3125481178588
-4855.929394849413,-4516.720796602306,-257.4916000876956
-3932.2194633233576,-4340.646398107408,-91.18944797662812
-2839.573146793248,-3546.1345107656543,154.0495480107886
-2060.6527203479277,-3040.2431003451743,297.4471404608098
-1467.463404934407,-2718.4920436642487,454.38350507053894
-1006.5465780873185,-2380.5988793318825,570.0366587978567
-659.1761712715353,-2104.0824338586576,644.9501103842802
-267.7733986631521,-1870.9651104097732,665.7247887912795
61.53977148159668,-1699.2652944685497,685.7775081194904
314.57429397398704,-1530.6348243283896,728.2446095251692
490.4855378748095,-1349.8289426052731,765.5917158254858
603.8137386365376,-1184.2372267797873,778.5043822304253
666.5558575048565,-1010.6560344256194,774.9343557687897
721.8907578021037,-794.4588620986781,771.1083805376965
772.1178995885446,-601.7172021026549,735.8894219738647
785.5842718971311,-446.8518811214839,759.1165178730761
763.9336572631837,-334.3098815599619,778.0353127724555
729.7966176013216,-275.9770155965595,781.2514977081879
710.3118802037393,-268.1588513916577,773.0845905584476
673.7499553874158,-341.7385141715061,733.5389761029506
638.4983659047688,-422.7141786440834,733.2840470497061
610.0798947652869,-473.0728638219984,701.6310360826583
585.9503500175902,-480.8716534188536,673.8233749547502
574.4448919865602,-511.66300418593505,681.6048293759848
542.5542871418885,-546.4485833592512,657.6965630465043
541.6834494960053,-650.9389037030995,654.1112408416739
578.7195423513637,-709.540974746728,623.4667292092611
572.8225234917123,-787.2617050674797,580.4693753728337
528.9726869012354,-884.8454875008287,446.7050419868151
498.3720230659808,-935.7517602851127,352.22731513819707
437.73459846124825,-932.1542014857267,268.8899879163629
356.712027042874,-990.4799294356383,165.83338856796158
267.1666675164302,-1164.811632922558,63.039774030887216
138.85271728877856,-1455.7468656472904,-134.13143122269074
-25.396032284215305,-1769.9112337036604,-363.15969265753347
-137.92987411603352,-2227.9371650869566,-626.2505544706909
-235.43819754962198,-3270.3216694793846,-891.068815548633
-402.2790657360057,-4443.474581024102,-1129.0093966849026
-1009.107085498106,-5511.994411955154,-1303.258503158571
-1844.31992576466,-6074.989930302398,-1392.3613058485826
-2311.910795225689,-6097.749996176065,-1320.7976220217915
-2236.4212039789327,-5652.633672049069,-1234.8253481056224
-2256.621782158026,-4959.440787628803,-1182.5241035419845
-2183.2430034721338,-4228.079925356773,-1105.3927691923338
-1992.5968602937805,-3551.2534861548033,-967.4618753600874
-1799.5849755013182,-3001.269546685158,-734.8727649095258
-1605.329036929023,-2417.2270857020494,-584.7980706969252
-1483.2282175870457,-1739.6562536646052,-424.3457245848481
-1390.0159585587332,-1023.7440920191912,-327.2483467850898
-1282.1401803877982,-517.6772904100789,-319.49136555296667
-1158.8157015902477,-162.3347422412343,-279.59598843641817
-1134.4546812622048,97.54146421051023,-185.91669938256186
-1166.6165306195287,307.98182865708475,-45.82237563286138
-1243.8294422662175,525.8023891950871,15.079971244002795
-1306.7459326069556,753.8150132818038,-69.04865575910225
-1354.682791779048,997.045882131003,-168.70286999128143
-1279.9070018813766,1289.3801654999415,-294.15651624153
-1230.4405683898171,1581.345311599782,-482.7826016019742
-1266.9566059765568,1785.8290037882462,-578.2096842448748
-1245.5527626661503,1754.3299699693578,-620.9541484604836
-1182.870807054397,1505.947494812194,-650.5738452988534
-1161.4975552303795,1301.647351542066,-547.5243839639429
-1192.5479139155575,1198.5540424099975,-422.0544222542867
-1251.5079053499412,1099.3050634008557,-324.4869552803455
-1274.9205895999146,979.685213605054,-308.73539893847544
-1268.0884909729625,855.8264035119028,-308.2153436698567
-1250.9980472434524,739.2738600847384,-346.81262204728426
-1272.1979473112635,619.2185914659951,-378.1219886505586
-1270.5256127219795,502.78535483574933,-416.9507426083322
-1363.4115625621391,426.1587800115229,-414.1587596171986
-1496.2092049782548,349.48835739013833,-451.2111679319646
-1610.2950548862254,230.0449184991817,-495.68711027720997
-1664.9008580911936,137.6117226575844,-496.1939092350599
-1718.9050287305045,91.67238557509447,-488.9987916362877
-1771.8181030219291,123.2439212167254,-466.34987482983496
-2017.8858223756329,-48.49943660679234,-418.436469130641
-2818.3834438875665,-883.947117517195,-227.45279988579182
-4200.833108146004,-2160.0444596268862,-67.24783692698323
-4945.909153482587,-3417.5992821197865,-301.7941906767347
-4633.702640555134,-4228.130911167423,-239.43854425313438
-4750.031866131656,-4376.040747859871,-9.129233734251759
-5243.217612538431,-4480.347519285383,7.382908536554277
-4410.313409778059,-4626.666598685587,-46.365884374378616
-3052.9283700346195,-4068.1986203239644,-4.369891859095614
-2147.287809802532,-3509.343149801411,117.20006322240522
-1524.190217862369,-3131.130406407897,125.2578607373568
-1123.7986468365855,-2735.5416987452395,149.54342206563916
-815.1040365466291,-2323.596743026416,192.02377978208668
-483.3668989920106,-2019.9864377743677,254.83829850152705
-151.95607062554492,-1762.7936145370745,317.8037352204882
65.63321827535398,-1547.7456623821593,328.18750541724245
259.55550570276296,-1294.0402685932506,314.5375841903199
434.2645041884844,-1032.4422713158929,300.5735903698001
605.1210148215753,-809.4293158214069,294.53075209169293
696.2285795863013,-631.8447176150878,330.6185088689818
747.1399509516502,-554.7888422651977,338.969984653271
717.4560119918627,-488.6112994753561,357.92548933631775
660.9351817389221,-422.1920839430387,380.40207410277725
616.3011833806652,-386.6743485288045,418.8606710752398
597.9605675740443,-370.8452937547481,442.07960924474725
584.3748884685393,-381.85313027384484,496.8577444897086
592.3551875513045,-420.4636649620411,512.8061060606833
609.4333946862589,-474.2312614399413,572.1128010074797
624.8209123400958,-497.528717757848,576.346662723764
655.1024050006883,-478.59360739906083,557.1137952307873
707.8767978871481,-394.3436341666115,506.59909347228677
784.9163577776305,-302.2602009860656,487.8199996940852
804.7834887550795,-313.8441771654949,507.77992484691515
789.6988268164971,-363.8469813850806,527.3452198253227
715.8846293076638,-467.7030382444566,530.5144978152581
648.9871668714597,-567.9554180071688,510.2272437580622
580.7263438585043,-668.5494027012284,450.67479720393817
536.9305522273152,-777.7049247194507,320.87512045397773
506.94069840363437,-922.1395685580704,152.15491528707562
430.1917576338506,-1101.0997639356967,-24.99936267736689
359.8966007760041,-1342.2320568185876,-225.39501256800236
227.4303661291063,-1695.0130778604316,-418.4945929547807
105.95361310947165,-2090.4998139017916,-619.1359944527438
37.81862307719762,-2624.5965747732407,-696.8475473275788
92.94917224536412,-3592.1848949437376,-684.9076901898202
-25.158030520106255,-4766.93876094283,-627.769931628028
-456.411720618152,-5599.679809109125,-674.5912212631225
-1074.709508343828,-5818.347753820113,-577.1501990995906
-1802.4197865733968,-5862.786986381691,-560.4278729229655
-2011.8796938811931,-5185.685223802217,-742.4574141016556
-1623.2250564667854,-4027.26721153503,-658.1268832883809
-1403.935084865882,-3138.8292638158805,-626.4422611187307
-1252.5072272386597,-2442.5670335945506,-512.7092330204505
-1131.079420597248,-2001.7335175620626,-433.88516975725656
-1082.0310707530095,-1319.7065256739052,-270.6173871811475
-1051.5313588228396,-889.359771175682,-146.0243814146523
-1017.5564540388411,-532.5162007413337,-17.20648743454697
-1020.2770568950662,-268.59732936323826,72.12860660878079
-1025.4470180948645,-121.15044383148171,114.7241922572948
-1003.977912946827,-20.335690577312334,157.87654295809477
-989.0574253185339,83.69300423692088,122.42814824634306
-971.781393238262,148.69705760886748,51.82422131920686
-944.3102384606365,251.8882594973819,-65.85102965844605
-885.058608189341,432.31888565412254,-171.5366613471471
-814.8460483447458,604.7855281875055,-292.7299332595739
-755.9197075453902,700.1718221818869,-390.2851636389593
-722.3567681114347,715.0719154859204,-425.1543595417396
-756.9271871638124,634.2675633371233,-405.77567263030704
-799.776682149358,510.8982170262017,-394.228406234545
-859.2210387849063,438.5524108640566,-316.38225081959695
-918.6123701773797,393.25355753493807,-242.55071813514303
-958.9564224276385,432.71249611233196,-192.26851167320137
-960.410537747345,483.5494281941336,-133.59200134602543
-966.2912411475887,491.7907746274213,-82.68807390903112
-977.1685539914243,453.4321098438305,-55.24924413535714
-991.3997134597442,364.0274711547777,-114.02976551625683
-997.8147481555885,290.0389021735252,-172.7460447757389
-1012.4007688660247,227.5782249799881,-247.32197029566672
-984.3004491849919,226.65640152345605,-325.389404128831
-957.3269159192998,245.75772562495862,-328.9747263336614
-948.7755757572668,288.3910407733528,-313.29251069427386
-966.8163949972724,327.466566054667,-286.2221043883488
-1015.9034940576039,413.0676632693122,-275.4722560711354
-1077.992994549617,525.4291730611371,-312.1025018737286
-1199.6655330821434,483.3169328975747,-368.72734318039295
-1540.2099595682523,242.27437504142603,-365.166494164674
-2366.251472215283,-396.6481928079416,-285.1177517296937
-3557.2698118113735,-1823.283180290925,-349.16612706683736
-4305.751709299303,-3637.6948295289426,-122.70347162384711
-4620.079231949749,-4654.260119408769,574.5998888509329
-5012.302876109579,-5022.754967292603,558.1936747003309
-4828.182916694284,-5654.87704771762,555.234458250269
-3663.483452555154,-5760.172943869722,620.1322571928233
-2489.1680645276424,-4968.087981114856,666.4467478700678
-1626.4473596997957,-3864.510306781623,659.9480964447595
-935.4723580427568,-2995.7528819729473,635.9704894127965
-488.09838222022813,-2578.158698434226,566.695048767928
-141.97508833291698,-2272.060285622512,488.429789989446
132.51416130890775,-1972.712394140711,456.21083652419543
346.4934508726222,-1664.8906609290639,454.45284577302147
518.6297053530004,-1337.2864331856447,463.77509139206563
701.64531210964,-1048.563984643074,461.6173718854043
855.0351037306319,-859.7166208644135,514.2979508802702
946.8248586418401,-720.5794027522142,577.9975832725753
988.4935222527571,-623.5432079252345,648.9382204932368
981.9030963682808,-561.4129187847022,668.2526652832518
933.6898941024715,-525.7972906140222,714.5059729877177
826.7206436448737,-547.9026986789578,744.3744805820542
760.5655346117176,-548.5553170552636,613.8732390775648
743.8768590701209,-503.40942115809173,456.48615990169947
784.3626518739836,-412.5251742440079,272.3294907027375
814.1607990496245,-332.917968929247,115.52263005205653
836.4630123436648,-294.68268980742664,84.33042884165339
833.6180041094565,-286.6758781031239,111.73336460463055
797.5659373996217,-320.5131211983705,189.7997787215818
789.4704103847901,-389.0686421968766,303.7234937516889
757.0536319742216,-473.1942100513428,385.9391331392474
759.2093120484569,-515.1351378911249,456.7553649819256
729.1195260359043,-584.2260099014445,491.86011532990375
682.470568440803,-680.5188316091633,499.33565488724497
653.2628369524762,-804.4520809858617,460.0694426741038
599.0006781112817,-1029.0976021373253,385.446610208379
499.86794675041943,-1257.9117231674427,239.52318069881156
411.369835774704,-1521.793884761871,74.25338928176289
282.1310029418813,-1905.655855975282,-130.46759086946105
227.5272391693392,-2397.8524776554686,-270.91208516669815
292.0273487888321,-3303.2890946449606,-223.7196188300796
308.60181611457534,-4564.09681185726,-152.49957936706215
13.452504168090023,-5687.212248831151,-102.11234213518378
-569.7521579744358,-5852.977316412843,-114.21331443459286
-1243.5541188887134,-5544.411190365722,51.26062416829397
-1856.648294779563,-5188.346683118089,-41.54109711267355
-2007.8314205156707,-4417.900098402615,-117.04812550667151
-1716.4475126572277,-3476.2329643660178,-127.63379951359538
-1523.6089796209717,-2712.0270428739686,-166.56962367373163
-1339.4380343950281,-2246.363437055468,-283.12012766846993
-1362.860915807131,-1681.4304579035656,-297.1514227590462
-1404.903815268211,-1201.1441215909613,-275.8536299347892
-1322.806462961358,-756.3561460845448,-221.17950574355157
-1204.0401156358187,-405.0231220651293,-200.9626121050512
-1119.1385437432764,-207.69375882691847,-125.78913288431832
-1094.5022000377296,-68.46140119204826,-110.19053397439494
-1056.5687569149507,97.15152473066746,-161.2018375286158
-987.0445055141156,274.3036612910627,-192.15430345734785
-944.2786272580342,463.3039825016698,-219.62443851876023
-917.1725308846549,636.9147466260141,-251.20097076983478
-866.9984143412889,783.3001075800605,-278.4151570617897
-762.7925948208614,863.6374297033137,-288.8988594474158
-670.9110654504852,893.6680721755137,-311.1715009712797
-646.1717304074277,865.8655096286703,-369.57676678580356
-669.9729265345455,788.6352628063611,-373.59750781357553
-725.5831502092968,707.5351929558005,-405.55337449587785
-772.1515502235728,680.7768198110467,-410.0860130625647
-739.6868451509946,642.3304594331398,-354.5247357660364
-706.404327675608,604.0890620140415,-275.40495480107893
-713.0192267491958,546.4944705888352,-232.1394156006384
-827.258034089113,489.80028857968836,-182.6393314740508
-981.3137003971796,444.6686687094982,-173.02034843702998
-1144.794603661801,387.5798565259289,-210.5979106014796
-1267.3339009753588,337.52504677948133,-290.7567823874616
-1355.6821136677665,352.73105494740815,-398.09618983037024
-1414.3565845625164,403.1631596926576,-434.46742771486703
-1458.734634151316,468.6421968766093,-505.99644119041676
-1514.1868018130556,545.9203703609286,-565.9567742297319
-1620.9612864739745,589.515277898161,-544.1552415962639
-1918.8611809333463,430.3069855659171,-438.19143132466235
-2769.9061351225955,-205.04657553802778,-413.4745300382904
-4338.454008249504,-1343.833011272963,-205.50034925280298
-5051.041895040611,-2540.2966354463556,-70.85110613716203
-4874.783947627376,-3833.6638913390407,391.40787118944803
-5540.393508486589,-4752.244650313818,490.5018533342171
-5287.952562801773,-5189.20324473699,307.37509751036293
-4225.132945501267,-5282.568461197249,319.68613134964545
-3230.7770747401,-4674.164979886098,434.5683796199518
-2266.492635099652,-3744.805820540144,504.7462691133058
-1502.1031646892673,-2989.5530073980412,399.83378625728466
-880.2282124884646,-2481.3366440119717,234.75090882207485
-485.1830135673243,-2148.8785670947777,117.8842928013134
-145.56652883502522,-1846.2777808935773,74.85491987579857
138.62124170843256,-1592.847710482173,109.65416324636854
388.34668311808827,-1366.1138105265306,155.8004007484717
579.6434052403217,-1169.9917912844855,189.40106968230745
729.8883920604897,-977.0747400998304,261.6438845069418
819.6519708565107,-829.7257473245197,376.3058740752449
893.7027425267548,-705.5049379757614,486.8849199267844
906.587876593944,-569.0985198819169,608.2811153655939
877.2312665385225,-495.1150494817293,635.0639616994591
850.8563066898482,-429.10474015081604,638.3709013781465
837.848806677102,-344.41628894678615,579.0213783504051
892.8390428943627,-241.29646719318015,477.4566238215905
922.438345408473,-164.60463053132315,426.6217311722148
951.7929160314685,-161.3496963794976,383.87930638903197
928.7554873478712,-246.1125868670749,403.4435816512265
881.0725375128104,-412.17847073159544,395.43982909556274
842.323321419649,-577.9965635563624,422.89160926514154
826.802220941912,-689.9002207685602,442.65982776993167
816.2522370024423,-720.4529579418048,477.92569327956033
794.7137911519225,-766.2198610126803,532.7028088083088
750.109364563842,-823.381073047371,591.0968577444899
700.7071731937003,-943.5352541387732,524.0433787277001
662.9185297731642,-978.8041787970408,441.17919982868773
606.5516766683833,-1018.6098208868474,267.7856352577078
517.8873519499524,-1151.2290129656917,70.67418537421037
423.1261439941265,-1345.1790366740938,-67.4526979141705
325.0579963596132,-1596.8959838476953,-177.96189320512102
184.37488846853924,-1970.0407376627088,-492.7798993540098
119.93698153803798,-2416.3807212452775,-704.1691097367603
126.11952093732316,-3071.477007948688,-835.303595009509
51.38411180168559,-3938.3479577633548,-923.7649962015572
-288.98655504173195,-4792.513243564316,-1122.20788954434
-826.2780868084413,-5424.145860207105,-1269.4141220498338
-1598.435755329292,-5878.123518224878,-1228.4317274502507
-2278.9841587086316,-5915.9549897263605,-1297.3645434475586
-2154.7215409951414,-5207.945628731524,-1191.925887025641
-1859.3709370682143,-4140.710640228825,-1002.7236620048642
-1725.0437203326314,-3207.180841571791,-764.4588111128674
-1599.5574431635678,-2537.4924158606664,-615.7026099636472
-1568.6906333967258,-1719.8635619707038,-449.24005649227826
-1484.5130600153977,-1135.5355804479614,-363.6083677912438
-1343.7616311380543,-687.1174152233434,-284.5212177451016
-1208.6288385942194,-393.59312303385974,-224.61798881371317
-1123.819041160845,-207.8691500155507,-149.40576037688714
-1107.0243151330985,-63.755308897533816,-27.977239934126338
-1134.413892613686,76.37246154395233,41.78287182677062
-1137.2385065236347,223.41370396618623,41.24456363793957
-1103.5980686574926,385.0846109527719,-21.590859263866868
-1020.4606058134024,654.3518938679366,-123.29388731116133
-955.9666144911871,916.2007413336869,-205.6288334956382
-880.8400422162513,1220.2128147736487,-323.2673746896239
-825.1941284740458,1338.938373450669,-409.1764262005884
-868.5912110659605,1292.6738488678602,-429.29338765021697
-938.9863001126788,1126.8883869619087,-425.86306230975924
-950.5427439543577,972.5002931684114,-394.11929659975635
-933.4624973869774,841.494292138498,-318.85302320364246
-908.7037877358731,745.1800563903066,-251.43856464745863
-937.2119939020972,668.7615036735277,-169.1913140572979
-966.3748578770529,576.7321154522697,-102.59874676877428
-981.4595198156353,488.1095990985709,-75.05366256570798
-1001.8150948591009,391.4374429596244,-86.80629980676379
-1007.8222430697538,336.8601918086197,-137.7320491707158
-1044.8726119520938,290.1908398892589,-196.99897518520598
-1129.5600434399107,278.28565310274155,-304.1925632096588
-1209.0877108900595,239.6465663605819,-368.04719246633664
-1342.8030978978552,224.533352368036,-444.5666970882004
-1455.532725242565,240.59796158729029,-477.70645429377015
-1586.933356446901,283.99402446299194,-499.44374480582064
-1840.8324963162752,178.9296038912371,-357.681777161416
-2443.301229267895,-310.0906017855231,-192.37354244313812
-3493.568139986642,-1191.7627324315645,-197.28143657620086
-4250.493287718029,-2444.4535085885605,-329.9822059520836
-4592.597880009994,-3947.7293469227516,-0.36675725145691956
-4906.089235365798,-4713.189519356763,225.14824124446167
-4722.927809190703,-4944.909831593868,1.0450867523568192
-3954.184150550902,-5176.3344261292095,-108.32241387221936
-3010.6917244930737,-5090.097025997666,-19.91291623541169
-2080.9756644725776,-4550.493797576136,133.47983256259786
-1317.820050679896,-3738.483580019681,314.854715932556
-791.5312568512184,-3072.874019160468,359.7385447629925
-404.39497687793494,-2627.42118868319,324.788791279387
-95.88167213064605,-2208.786894607231,249.5051827076525
189.81201531613755,-1843.9732222522475,193.6848974930277
419.8049282884574,-1509.088220748166,203.8494287039917
639.1632208756304,-1158.428209429316,237.34914573274258
804.1930730677653,-880.8196478919918,274.2057685346168
914.2418664885564,-730.4981823558504,306.74491289074257
936.342175972427,-617.9408870511337,365.5652032039484
919.6371849714227,-543.7738677326101,423.93375923480505
909.493048084718,-477.6768825235937,451.0316978784805
894.6510786048243,-434.933438024198,458.51437544931247
874.7278632356617,-373.159029841995,426.6105142938721
861.8855572494175,-342.4961633177487,383.1440909994749
894.766306536891,-327.7673823374955,328.64229884823055
924.3676484834272,-328.3129305114387,293.7659649319595
977.688609260043,-359.7823925601505,282.8968098178277
1031.697878480419,-429.69923470298227,299.63953031871233
1044.5157112775516,-560.777635584017,363.0679181983655
1030.2702757822499,-683.9450780847691,422.13905869996387
984.0322638209788,-760.8255622460271,437.4042104082434
933.5563112785713,-795.2909505284681,432.83996063895427
848.4813876298227,-837.1931291521571,431.7070559263358
734.905395828341,-902.4396710395497,390.9795903799973
612.8596411618647,-1037.336909138187,342.5114590609434
483.5708422346062,-1145.018941228656,301.6922190554369
329.3071538190922,-1264.5704700381884,209.51803113193603
171.9802378997925,-1368.45915781638,136.86834953832349
17.9350746687197,-1514.9923776213082,56.56325044740049
-118.42372267797873,-1692.9634482723459,-62.61750954709304
-250.74413790642066,-2108.4978050608515,-349.6953597813729
-345.162721214686,-2647.0609229451447,-518.0515262602419
-422.40622434776407,-3541.5967736179027,-673.1748354432962
-605.6278137794253,-4536.227967756574,-864.870266604804
-1226.8205758337456,-5313.730988665855,-957.8938781337155
-1882.3145518602175,-5617.728786078835,-915.6674297542995
-1947.1175171949649,-5569.710349609704,-795.1369733803083
-2025.89059464751,-5359.995513248664,-777.4010492879833
-2031.6723855750947,-4737.693299954623,-850.23020093508
-1882.5184951028132,-3899.1092778879643,-831.2022964009118
-1681.6547954704206,-3141.6028919151804,-748.3319992046214
-1511.2806106060686,-2511.2245262143547,-630.1672844447392
-1411.6135479496058,-1973.3344210306275,-532.3734404715168
-1338.9689649370582,-1481.5864744841513,-426.9796515629701
-1336.0117879194222,-939.1861644904224,-342.42376346662724
-1328.680028348111,-482.6388216159443,-336.0046499059312
-1220.6920813937484,-115.57157643027946,-296.37949758582187
-1235.896050129249,190.68591211065964,-242.6955178373859
-1331.4332621231513,408.89498452580654,-154.5961159009448
-1419.1492507635126,661.8284531414907,-70.42200955474092
-1433.5578408528909,901.6371543799363,-91.0699372364671
-1425.4714912839759,1148.8326798651935,-131.0294545028119
-1229.247500420633,1428.1635420862376,-305.6395405158745
-1000.7902800650579,1725.9206762757926,-554.3982909556271
-846.3736342175974,1855.1085232979663,-682.0331101854355
-759.6426914389726,1771.8486945083187,-829.5891053519807
