acc_x[mg],acc_y[mg],acc_z[mg]
-983.9629231184963,-171.90783804867107,99.81879642895383
-999.6767499604862,-175.72565555006042,91.74702880188444
-984.2627196851117,-156.53561613802881,87.9885587840904
-984.0720327532848,-168.0726853716611,95.8795307265988
-973.3843871250633,-156.79564377233817,68.52931429183259
-969.285127948892,-160.62569786828328,76.45281518153499
-972.5665747222549,-156.59068081352962,92.08853176161075
-992.2695313894145,-179.72192338872094,84.02216863047015
-992.1053570791249,-175.8194694416544,87.93614537074333
-976.2559079808091,-171.9669815890238,99.93443224750553
-972.6746646408305,-172.0648743454697,92.13910968577447
-960.9509873402233,-168.25113570893222,96.22654015387519
-988.1978045509936,-187.42078079670432,91.95841597283477
-983.7987488082067,-168.00436438539157,103.73267119760571
-988.5251334553594,-175.9173621981003,80.14082280901226
-957.2881667032067,-156.74363824547632,88.39328414902134
-965.3225107452597,-164.48940259925664,80.44979682154457
-984.4258742791882,-179.7474162940454,88.06442567033595
-984.4534066169387,-183.61621960608363,88.07707015137689
-985.5169706270746,-160.71135403017342,52.66222410303213
-964.8860722061053,-160.51862766592058,92.21681206120337
-985.1345770472078,-183.78753192986395,68.44426995967022
-972.5930873437923,-160.45948412556785,92.10117624265168
-988.1427398754928,-179.68317417262776,91.93312701075293
-988.6067107523977,-168.21442592526503,76.1890145972376
-972.2657584394265,-171.96290272417187,103.91927926458067
-980.1359281711901,-175.80621313088568,99.88925881927061
-980.0003059148639,-156.4621965706944,99.82603641406598
-987.3799921481854,-167.9064716289457,111.52840164582199
-980.790585979922,-172.10872214262773,80.24381414652304
-976.446594912636,-179.7382388481286,96.03309998827328
-975.9010467386928,-179.60159687558954,111.73948290190842
-976.3650176155977,-168.13284862822678,95.9951665451505
-972.2932907771769,-175.83170603621016,103.93151585913641
-980.6814763451333,-175.94285510342476,84.18307984887807
-979.8361316045746,-171.86908883257792,107.7299587524792
-984.2892323066492,-179.7137656590171,91.99094492002877
-976.5281722096743,-172.03530257529331,92.0812917764986
-984.2627196851117,-175.84496234697886,91.97830043898784
-987.4615694452235,-179.51288156506047,111.56613114570216
-984.207655009611,-168.10735572290235,91.95301147690598
-972.8113066133697,-172.09954469671095,88.21259043608165
-964.6953852742784,-172.05671661576585,100.10788597533308
-984.5900485894778,-164.34154374837485,80.16070727516534
-984.3993616576508,-175.87861298200713,88.05178118929503
-972.8113066133697,-172.09954469671095,88.21259043608165
-992.1604217546259,-183.5570760657309,87.96143433282519
-988.2793818480319,-179.71784452386902,88.00660776106011
-976.5557045474245,-175.90410588733158,92.09393625753954
-984.2627196851117,-175.84496234697886,91.97830043898784
-965.4866850555492,-168.39287626253616,76.53592205289269
-979.9727735771137,-171.90273946760618,103.8030316163012
-980.5183217510569,-172.03938144014523,88.09695461752996
-972.6481520192932,-168.19607103343142,92.12646520473353
-972.1566488046378,-175.7970356849689,107.85844299531442
-976.6648141822131,-172.06997292653458,88.1547725268058
-984.2351873473613,-171.9761590349406,91.96565595794691
-972.702196978581,-175.93367765750793,92.15175416681538
-976.5281722096743,-172.03530257529331,92.0812917764986
-984.7256708458037,-183.6845405923532,80.22392968036996
-980.4632570755559,-164.30279453228167,88.0716656554481
-972.2657584394265,-171.96290272417187,103.91927926458067
-984.480938954689,-168.17567670917185,84.09997297752037
-972.0750715075995,-164.1906257488541,107.81969377922125
-976.5016595881367,-168.16649926325505,92.0686472954577
-976.7463914792514,-183.67536314643635,88.19270596992857
-969.9122534198733,-172.3687497769371,60.784569654265226
-980.3541474407673,-168.1369274930787,92.01082938618183
-980.599899048095,-164.33644516730996,84.14514640575528
-969.1219733548155,-156.72222420500378,80.36668995018688
-984.5349839139768,-175.9132833332484,84.12526193960223
-972.2117134801387,-164.22529610009536,103.89378635925624
-976.4190625748855,-175.8704552523033,96.02045550723236
-969.285127948892,-160.62569786828328,76.45281518153499
-968.8762217474876,-160.5227065307725,88.23247490223471
-980.2185251844413,-168.10225714183744,95.93734863587464
-980.0278382526144,-160.33099988273267,99.8386808951069
-980.5448343725942,-175.9081847521835,88.10959909857088
-980.1094155496526,-171.9374098188474,99.87661433822969
-961.1967389475509,-164.45167309937645,88.36075520182735
-976.9921430865792,-160.56655432793056,76.33717936298329
-964.7504499497791,-160.48395731467934,96.14343328251749
-980.5458540888071,-156.59883854323343,84.11985744367342
-988.4710884960717,-168.17975557402377,80.1155338469304
-976.4200822910984,-156.56008932714028,92.03071385233491
-976.0101563734813,-156.45811770584248,103.81016962979204
-976.2834403185595,-156.526438692112,95.95723310202773
-964.5322306802019,-168.15324295248632,104.02227060209145
-983.8813458214581,-160.3014281125563,99.78086298583106
-975.8194694416545,-167.99518693947476,111.70175340202823
-976.6923465199636,-156.6294300296228,84.1776753529493
-976.5557045474245,-156.59475967838154,88.1041946026421
-973.4659644221015,-168.40205370845294,68.56724773495537
-983.6631265518807,-167.9707137503633,107.65959833378372
-983.9904554562465,-156.46729515175926,95.84159728347602
-976.4200822910984,-156.56008932714028,92.03071385233491
-980.2185251844413,-168.10225714183744,95.93734863587464
-976.6923465199636,-156.6294300296228,84.1776753529493
-984.4534066169387,-164.3068733971336,84.08732849647944
-976.4741272503862,-164.2976959512168,92.05600281441676
-984.3993616576508,-175.87861298200713,88.05178118929503
-966.0047008917419,-164.66071492303695,60.81709860145923
-965.1858687727206,-164.45575196422837,84.37641804285869
-969.2575956111415,-176.06624076519506,80.42991235539151
-973.0295258829469,-164.43025905890394,80.33416100299287
-992.1604217546259,-164.24772985678086,83.97159070630644
-983.7171715111685,-156.3979544492768,103.69494169772553
-968.6304701401601,-164.32318885654124,96.09825985428256
-980.1909928466908,-164.23447354601217,95.92470415483372
-965.0502465163946,-164.4210816129871,88.30293729255149
-968.6039575186228,-160.454385544503,96.08561537324164
-976.5016595881367,-168.16649926325505,92.0686472954577
-984.3167646443997,-164.27220304589235,88.01384774617226
-968.685534815661,-172.06079548061777,96.12344684474311
-976.7463914792514,-183.67536314643635,88.19270596992857
-988.1702722132432,-183.55197748466605,91.94577149179385
-976.5557045474245,-175.90410588733158,92.09393625753954
-980.2185251844413,-168.10225714183744,95.93734863587464
-991.642405918433,-167.9788714800671,99.69051612936121
-995.7957100538922,-171.88642400819853,91.79220223011937
-988.0071176191667,-160.34017732864945,91.86990460554829
-973.2752774902746,-160.62977673313517,72.46847802256633
-964.8044949090669,-168.22156393875588,96.16872224459934
-987.9255403221285,-168.04311360148472,95.82171281732295
-984.1260777125727,-175.8102919957376,95.90481968868066
-968.7946444504495,-168.22666251982076,92.18428311400939
-973.1926804770235,-168.33373272218344,76.42028623434099
-972.6206196815427,-183.6376336465562,96.10356237859006
-965.1042914756824,-152.8493420281136,84.3384845997359
-976.2559079808091,-171.9669815890238,99.93443224750553
-972.9204162481583,-168.26439201970092,84.2734267053479
-980.7630536421715,-187.5492650395395,84.22101329200085
-979.9177089016127,-183.4754987686927,107.76768825235938
-968.5488928431218,-172.0261251293765,100.05006806605724
-980.32763481923,-164.26812418104043,91.99818490514092
-968.167518979468,-156.48361061116694,107.85232469803655
-995.4133164740255,-175.653255698939,103.58481234672391
-976.5281722096743,-191.34464878424336,96.07103343139605
-968.3306735735445,-160.38606455823347,103.93865387262726
-976.582217168962,-179.77290919936982,92.10658073858046
-984.7807355213047,-172.11280100747965,76.25947698755438
-984.1260777125727,-175.8102919957376,95.90481968868066
-988.033630240704,-183.5183268496378,95.87229074148665
-992.378641024203,-175.88779042792393,80.08300489973641
-968.9037540852381,-164.39150984281076,88.24511938327564
-991.2875446763167,-175.61450648284585,111.49577072700669
-984.4534066169387,-183.61621960608363,88.07707015137689
-976.6372818444629,-168.2011696144963,88.14212804576488
-980.5183217510569,-172.03938144014523,88.09695461752996
-977.4826265850214,-172.27493588534313,64.59545308540633
-980.4092121162682,-175.8745341171552,92.03611834826368
-972.5115100467541,-168.16242039840316,96.05298445442634
-976.7739238170018,-168.23482024952457,84.21560879607206
-980.5448343725942,-175.9081847521835,88.10959909857088
-980.4357247378055,-179.74333742919347,92.04876282930462
-972.1841811423882,-160.3564927880571,103.88053004848753
-964.9676495031434,-172.12503760203538,92.25474550432615
-976.3374852778473,-164.26404531618854,95.98252206410956
-981.2270245190765,-176.0794970759638,68.47679890686423
-969.094441017065,-172.16378681812853,84.34388909566468
-976.5557045474245,-175.90410588733158,92.09393625753954
-980.5723667103447,-179.77698806422174,88.1222435796118
-972.8113066133697,-172.09954469671095,88.21259043608165
-976.5281722096743,-172.03530257529331,92.0812917764986
-973.1926804770235,-168.33373272218344,76.42028623434099
-964.5862756394897,-175.89084957656289,104.04674379120293
-972.7562419378687,-183.67128428158443,92.17704312889724
-965.6773719873761,-176.16413352164093,72.63469176528173
-969.230063273391,-172.1974374531568,80.41726787435057
-973.1376158015225,-199.21481851600703,84.37458255367531
-976.5557045474245,-175.90410588733158,92.09393625753954
-991.8606251880102,-179.61995176742315,95.80182835116987
-980.8181183176722,-195.28687166361604,84.24630225408269
-968.8762217474876,-179.83205273972254,92.22221655713216
-988.224317172531,-191.28958410874256,91.9710604538757
-984.3708096036875,-191.31915587891893,92.02887836315155
-980.5173020348437,-191.34974736530827,92.0866962724274
-957.5063859727838,-168.38369881661936,84.5046983424513
-972.8928839104078,-183.7059546328257,88.25052387920444
-984.9438901153811,-176.01525495454618,72.34560221890248
-972.6206196815427,-183.6376336465562,96.10356237859006
-973.438432084351,-183.84259660536475,72.54434490881188
-972.6206196815427,-183.6376336465562,96.10356237859006
-984.2892323066492,-179.7137656590171,91.99094492002877
-980.8721632769602,-183.71411236252953,80.2817475896458
-976.8004364385394,-191.4129697705129,88.21799493201043
-977.0186557081165,-183.74470384891887,80.33956549892166
-980.5723667103447,-179.77698806422174,88.1222435796118
-961.0050322995111,-195.29808854195878,100.24157077085448
-992.1869343761632,-187.42587937776918,87.97407881386611
-984.5074515762263,-191.35382623016017,88.10235911345873
-976.6372818444629,-187.51051582344635,92.13186970066232
-957.6695405668603,-172.28717247989886,80.59082357379941
-976.582217168962,-199.08225540831987,96.0963223934779
-961.4965355141665,-168.38879739768424,80.52036118348265
-976.3374852778473,-183.5733915251386,99.97236569062831
-980.5448343725942,-175.9081847521835,88.10959909857088
-980.6264116696324,-187.51459468829827,88.14753254169365
-972.4013806957524,-191.3058995681502,103.98148195357233
-972.8928839104078,-183.7059546328257,88.25052387920444
-980.5723667103447,-179.77698806422174,88.1222435796118
-969.1760183141033,-183.76917703803034,84.38182253878746
-984.2351873473613,-191.28550524389064,95.95539761284435
-965.2674460697589,-176.06216190034314,84.41435148598146
-972.7297293163314,-179.8024809695462,92.1643986478563
-968.9853313822764,-175.99791977892556,88.28305282639842
-976.6923465199636,-175.93877623857284,88.16741700784674
-980.5173020348437,-191.34974736530827,92.0866962724274
-973.3568547873128,-172.23618666924997,72.50641146568911
-965.1583364349702,-179.89629486114018,88.3535152167152
-974.2562444871594,-184.04755956417333,48.98502546741243
-973.165148139273,-183.77427561909525,80.39738340819751
-977.2644073154443,-179.94422152315013,72.4738825184951
-957.5604309320717,-176.1213054406959,84.52998730453317
-969.230063273391,-172.1974374531568,80.41726787435057
-968.9853313822764,-175.99791977892556,88.28305282639842
-980.927227952461,-172.142372777656,76.31729489683022
-976.8830334517905,-183.7100334976776,84.26618672023577
-969.230063273391,-172.1974374531568,80.41726787435057
-976.7739238170018,-168.23482024952457,84.21560879607206
-980.8446309392098,-179.84530905049127,80.26910310860488
-965.5131976770866,-172.26167957457443,76.54856653393362
-984.3442969821499,-187.45035256688067,92.01623388211063
-981.1719598435756,-187.65123666083733,72.44135357130112
-977.0186557081165,-183.74470384891887,80.33956549892166
-984.5349839139768,-175.9132833332484,84.12526193960223
-984.5625162517273,-179.78208664528665,84.13790642064315
-984.5625162517273,-179.78208664528665,84.13790642064315
-987.9520529436659,-191.22126312247303,99.82420092488262
-980.1909928466908,-183.54381975496221,99.91454778135247
-976.8555011140401,-179.84123018563938,84.25354223919484
-987.5431467422618,-171.80892557601223,107.61371110419972
-984.6981385080533,-199.12508348926497,84.20112882584777
-976.9646107488287,-176.00709722484234,80.31427653683981
-984.2351873473613,-171.9761590349406,91.96565595794691
-980.5183217510569,-172.03938144014523,88.09695461752996
-984.3442969821499,-187.45035256688067,92.01623388211063
-981.0628502087869,-191.4863893378473,76.38051730203485
-999.2943563806194,-179.49146752458793,103.53892511713993
-980.8446309392098,-199.1556749756543,84.25894673512363
-976.8004364385394,-191.4129697705129,88.21799493201043
-988.1978045509936,-187.42078079670432,91.95841597283477
-968.4938281676211,-183.59888443046302,104.01411287238763
-976.7463914792514,-183.67536314643635,88.19270596992857
-984.5349839139768,-195.22262954219843,88.11500359449967
-964.8320272468172,-172.09036725079412,96.18136672564026
-976.2548882645962,-191.27632779797383,103.92437784564557
-968.6304701401601,-183.6325350654913,100.08800150918
-972.9469288696956,-191.44254154068926,88.27581284128628
-976.4190625748855,-175.8704552523033,96.02045550723236
-973.0019935451966,-199.18014816476577,88.30110180336813
-1000.2488107559667,-199.0404470435878,80.04323596743028
-973.3017901118119,-183.80792625412352,76.4708641585047
-981.1179148842879,-179.91464975297376,72.41606460921926
-1000.1662137427155,-206.74338331642306,83.99504417920494
-980.8181183176722,-195.28687166361604,84.24630225408269
-992.2409793354511,-214.4728322107958,91.98910943084542
-976.9646107488287,-195.3164434337924,84.30412016335855
-981.1454472220382,-183.78243334879906,72.42870909026018
-977.1277653429051,-199.21889738085892,80.39014342308536
-976.6372818444629,-187.51051582344635,92.13186970066232
-981.199492181326,-191.52003997287557,72.45399805234204
-976.5006398719238,-187.47584547220512,96.05838895035514
-977.1277653429051,-199.21889738085892,80.39014342308536
-957.3422116624945,-183.79059107850287,92.40831476600063
-973.4649447058886,-187.71139991740299,72.55698938985282
-977.5366715443095,-199.3218887183697,68.61048370238564
-961.6862027297805,-195.4694008657391,80.60877057914783
-977.046188045867,-187.61248744474415,80.35220997996258
-969.4482825429684,-183.83749802429986,76.52868206778055
-977.1552976806556,-183.77835448394714,76.41304624922886
-992.37762130799,-195.19713663687398,84.07274655463385
-984.5074515762263,-191.35382623016017,88.10235911345873
-980.790585979922,-191.41806835157777,84.23365777304177
-984.5074515762263,-191.35382623016017,88.10235911345873
-989.2063038856287,-195.3980207308306,64.49786624382435
-969.748079109584,-187.77462232260763,68.68828804943585
-965.1042914756824,-172.15868823706364,88.32822625463335
-972.702196978581,-195.24302386645797,96.14149582171284
-976.9370784110782,-191.44764012175412,84.29147568231762
-980.8181183176722,-175.97752545466597,80.25645862756396
-989.0971942508402,-199.23215369162764,68.43702997455809
-977.5642038820597,-183.88134582145793,64.63338652852912
-988.088694916205,-191.2559334737143,95.89757970356851
-980.8446309392098,-179.84530905049127,80.26910310860488
-984.3442969821499,-187.45035256688067,92.01623388211063
-984.5625162517273,-179.78208664528665,84.13790642064315
-981.254556856827,-179.94830038800205,68.48944338790515
-968.6580024779105,-187.50133837752955,100.10064599022093
-977.0737203836175,-172.17194454783237,76.37511280610607
-964.8860722061053,-179.82797387487062,96.20665568772212
-980.5448343725942,-175.9081847521835,88.10959909857088
-984.5900485894778,-183.6508899573249,84.15055090168407
-980.1634605089406,-179.67501644292398,99.90190330031153
-968.8211570719869,-172.09444611564604,92.19692759505031
-968.6029378024097,-179.76373175345304,100.07535702813908
-968.9027343690252,-183.7008560517608,92.23486103817308
-969.0669086793146,-168.29498350609026,84.33124461462377
-976.7463914792514,-183.67536314643635,88.19270596992857
-969.3391729081798,-187.67265070130986,80.46784579851429
-965.8405265814525,-180.06760718492046,68.72081699662985
-984.5900485894778,-183.6508899573249,84.15055090168407
-969.0118440038138,-179.8667230909638,88.29569730743935
-973.4924770436388,-191.58020322944128,72.56963387089374
-984.8347804805924,-199.1597538405062,80.27450760453367
-973.0295258829469,-183.739605267854,84.32400462951162
-981.4452437886537,-187.71955764710683,64.5882131002942
-973.6015866784275,-187.74505055243128,68.63036816853871
-988.7698653464741,-191.4262260812816,76.26488148348315
-961.7687997430316,-187.76646459290382,76.65696236737317
-973.2477451525242,-176.07031963004698,76.44557519642284
-965.4316203800485,-179.9646158474097,80.50037474570829
-965.3500430830102,-168.3582059112949,80.4625432742068
-992.6233729153179,-191.39665431110524,76.20706357420731
-981.0903825465374,-195.35519264988557,76.39316178307577
-980.8721632769602,-183.71411236252953,80.2817475896458
-976.8830334517905,-183.7100334976776,84.26618672023577
-976.8004364385394,-191.4129697705129,88.21799493201043
-977.3184522747321,-187.68182814722664,72.49917148057696
-965.2409334482215,-172.19335858830487,84.40170700494053
-981.1454472220382,-183.78243334879906,72.42870909026018
-977.3184522747321,-187.68182814722664,72.49917148057696
-965.4866850555492,-168.39287626253616,76.53592205289269
-973.6566513539284,-176.17331096755774,64.66591547572312
-977.0737203836175,-172.17194454783237,76.37511280610607
-969.6124568532578,-168.43162547862931,68.62506564423121
-973.3568547873128,-172.23618666924997,72.50641146568911
-980.5183217510569,-172.03938144014523,88.09695461752996
-965.3765557045475,-172.22700922333317,80.47508578362643
-960.8694100431851,-156.64574548903042,96.18860671075241
-973.1926804770235,-168.33373272218344,76.42028623434099
-969.2575956111415,-176.06624076519506,80.42991235539151
-980.7090086828838,-179.811658415463,84.195724329919
-969.3942375836806,-156.79156490748628,72.51365145080125
-961.523048135704,-172.25658099350952,80.53300566452357
-984.9173774938436,-172.1464516425079,72.33295773786156
-988.5801981308604,-164.34562261322677,76.17637011619667
-984.8347804805924,-179.85040763155615,76.28476594963622
-973.1937001932364,-149.0233667970204,72.43054457944355
-984.5084712924395,-172.04448002121012,84.11261745856129
-988.3609591450701,-172.01490825103375,84.05479954928545
-980.8181183176722,-175.97752545466597,80.25645862756396
-985.3262836952479,-172.24944298001867,60.553298017161836
-974.0115125960447,-168.538695680992,52.86096679294153
-984.5625162517273,-160.4727404363366,80.1480627941244
-981.2270245190765,-176.0794970759638,68.47679890686423
-973.3293224495624,-168.3673833572117,72.49376698464819
-977.2919396531946,-164.50367862623833,68.49668337301729
-969.1219733548155,-156.72222420500378,80.36668995018688
-984.5625162517273,-160.4727404363366,80.1480627941244
-977.7008458545988,-164.60565024753615,56.71712562393886
-977.5101589227719,-156.83439298843132,60.61835591154982
-969.1219733548155,-156.72222420500378,80.36668995018688
-996.2046162552963,-171.9894153457093,80.01254250941963
-977.1287850591182,-160.60020496295883,72.41066011329048
-965.5682623525873,-160.6899399897009,72.58411384111803
-977.1828300184061,-168.33781158703536,72.43594907537233
-961.2232515690885,-168.31945669520175,88.37339968286827
-981.0638699250001,-172.17704312889725,72.3907756471374
-973.1661678554859,-164.46492941014517,76.40764175330007
-957.9978891874392,-160.78375388129487,68.77323040997692
-974.0115125960447,-168.538695680992,52.86096679294153
-968.9302667067757,-168.26031315484903,88.25776386431657
-973.2752774902746,-160.62977673313517,72.46847802256633
-977.2644073154443,-160.6348753142001,68.48414086359767
-992.6784375908186,-160.51556851728165,68.25276725487298
-992.1879540923762,-168.11653316881913,83.98423518734737
-985.2447063982094,-160.6430330439039,60.515364574039054
-980.6009187643081,-145.02709895835991,80.15530277923655
-977.1287850591182,-160.60020496295883,72.41066011329048
-988.1437595917057,-160.3738279636777,87.94338535585548
-988.3344465235326,-168.14610493899548,84.04215506824453
-977.046188045867,-168.3031412357941,76.36246832506514
-976.0917336705197,-168.06452764195726,103.84789912967223
-977.1828300184061,-168.33781158703536,72.43594907537233
-988.3069141857821,-164.27730162695724,84.02951058720359
-980.790585979922,-172.10872214262773,80.24381414652304
-976.7463914792514,-164.3660169374863,84.20296431503114
-980.4918091295193,-148.8622516353699,84.09456848159158
-972.9479485859085,-152.82384912278914,80.2962275598701
-964.7769625713165,-164.3527606267176,96.15607776355841
-976.7739238170018,-187.54416645847462,88.2053504509695
-980.4907894133064,-187.48094405327,92.07405179138647
-980.9812729117486,-179.8799794017325,76.34258385891208
-984.5625162517273,-179.78208664528665,84.13790642064315
-980.8181183176722,-175.97752545466597,80.25645862756396
-984.5084712924395,-172.04448002121012,84.11261745856129
-1000.3854527285058,-179.76577118587898,72.12697506284002
-980.8446309392098,-179.84530905049127,80.26910310860488
-988.551646076897,-179.78616551013855,80.15346729005319
-984.8347804805924,-179.85040763155615,76.28476594963622
-980.7090086828838,-179.811658415463,84.195724329919
-977.646800895311,-176.17738983240966,60.68157831675446
-980.8731829931731,-164.4047661535795,76.29200593474836
-969.5033472184693,-172.26575843942632,72.56422937496495
-977.7559105300995,-172.34325687161265,56.742414586020715
-973.1111031799852,-176.0366689950187,80.37209444611565
-981.0628502087869,-191.4863893378473,76.38051730203485
-984.8623128183428,-183.71921094359442,76.29741043067716
-981.7450403552692,-172.34733573646457,52.75797545543076
-985.0264871286322,-168.3123186817109,68.39369203550653
-972.5665747222549,-156.59068081352962,92.08853176161075
-969.884721082123,-168.49994646489884,60.7719251732243
-965.2949784075093,-160.62161900343136,80.43715234050366
-973.8473382857551,-164.6352220177125,56.77494353321472
-977.2644073154443,-160.6348753142001,68.48414086359767
-969.557392177757,-160.6940188545528,68.59977668214937
-965.4051077585109,-156.78646632642136,76.4979886097699
-977.7283781923493,-149.16510735062434,52.73992647846106
-988.7984174004375,-156.67633697541976,68.2979406831079
-980.9547602902114,-176.01117608969426,76.32993937787114
-977.5917362198102,-168.44080292454612,60.6562893546726
-1000.7668265921596,-175.99893949513853,60.33467086109936
-977.8109752056005,-141.46217107778907,48.78811826668638
-992.9517215358966,-160.58388950355118,60.39972875548736
-977.4836463012344,-152.96558967639308,60.60571143050889
-999.9765465271015,-160.35343363941817,79.91679115702101
-1000.1947657966789,-152.68414800161116,72.03846369555353
-996.7501644292395,-172.12605731824834,64.3063635390271
-993.1148761299731,-164.4863434506177,56.48585398683547
-977.0737203836175,-152.8625983388823,72.38537115120863
-981.1454472220382,-164.47308713984899,68.43886546374145
-984.3442969821499,-168.14100635793062,88.02649222721318
-973.5475417191398,-160.6980977194047,64.6153375515594
-980.9822926279618,-160.57063319278245,72.35284220401464
-980.927227952461,-152.83302656870595,72.32755324193278
-973.0295258829469,-145.12091284995387,76.34441934809543
-961.4965355141665,-149.0784314725212,76.5305175569639
-972.702196978581,-156.62433144855788,88.16201251191794
-973.6026063946405,-149.12635813453116,60.65088485874382
-972.8663712888704,-160.5278051118374,84.24813774326606
-976.6648141822131,-152.76062671758453,84.16503087190836
-973.0295258829469,-145.12091284995387,76.34441934809543
-1000.1682531751414,-148.8153446895729,72.02581921451261
-992.9782341574341,-164.45269281558944,60.41237323652829
-996.5054325381248,-156.61719343506704,68.1823048645562
-996.5319451596623,-160.4859967471053,68.19494934559714
-996.0139293234694,-144.90779216144148,79.92403114213316
-1004.0207410277721,-168.0951191283466,75.9577429601342
-988.4710884960717,-168.17975557402377,80.1155338469304
-992.4061733619534,-160.44724753101215,76.1059077258799
-985.1080644256705,-160.60938240887563,64.44188382373187
-989.1522589263409,-168.35106789780406,60.48283562684506
-988.3895111990334,-156.57436535412197,80.07760040380764
-965.2684657859718,-156.7528156913931,80.42450785946272
-985.407860992286,-164.54650670718343,56.60148980538717
-980.6549637235958,-152.76470558243642,80.1805917413184
-977.5376912605224,-160.7031963004696,60.63100039259075
-981.6094180989433,-153.00433889248623,52.694753050226126
-973.438432084351,-164.5332503964147,68.55460325391444
-985.5985479241127,-172.3177639662882,52.70015754615492
-992.6243926315308,-172.0873081021552,72.21732191930987
-985.2987513574974,-168.38063966798043,60.54065353612091
-980.8996956147105,-168.27356946561773,76.3046504157893
-977.5101589227719,-156.83439298843132,60.61835591154982
-981.5543534234423,-164.57607847735977,56.659307714663015
-981.4452437886537,-168.41021143815678,60.598471445396754
-977.2919396531946,-164.50367862623833,68.49668337301729
-977.9741297996769,-164.67397123380564,48.863985152931946
-969.4217699214308,-160.65934850331155,72.52629593184217
-984.7532031835542,-168.24399769544138,76.24683250651344
-977.046188045867,-168.3031412357941,76.36246832506514
-985.2171740604591,-176.0835759408157,64.49246174789556
-989.28890089888,-168.38573824904532,56.55631637715225
-981.0638699250001,-152.8676969199472,68.40093202061867
-997.2957126031827,-172.2626992907874,48.60018456863455
-1000.8494236054107,-168.29600322230326,56.3827606777034
-980.6539440073828,-172.07405179138647,84.17043536783714
-985.3262836952479,-152.94009677106862,56.56355636226439
-981.3361341538651,-172.24536411516675,64.5376351761305
-974.365354121948,-180.2134266033763,45.04586173667869
-977.046188045867,-168.3031412357941,76.36246832506514
-961.9054417155708,-149.181422810032,64.75085783626417
-962.5060545650147,-157.05567140664755,49.069967827953484
-970.1029403517002,-160.83066082709183,52.89349574013552
-965.7314169466638,-164.59239393676742,68.67023907246615
-946.3557891838703,-149.26605925570917,68.90875069468169
-958.5699499829198,-164.78919916587216,53.079695920625305
-962.5600995243025,-164.79327803072405,49.095256790035336
-970.2395823242392,-160.8653311783331,48.96697649044272
-970.5944435663557,-153.22969617555435,37.16202780766113
-967.0957972396283,-145.62465265916498,25.414999005776696
-966.4686717686468,-153.19196667567417,45.0729861879439
-974.7477477018148,-137.82790249473575,25.274074225143146
-974.2032192440845,-137.6912605221967,40.98025319553569
-974.5305481484504,-126.18784192359267,29.16266003171318
-978.6022749868712,-118.48898451560932,21.226412689348557
-978.6287876084087,-141.66713403659764,25.228798825286926
-968.4326451948424,-122.78912778573725,-17.85288554195368
-974.9119220121041,-122.42202994906519,17.37035582997252
-975.2943155919709,-118.65519825832473,5.578072022556123
-967.6413454135715,-107.14260221380391,1.729234753967971
-983.5733915251386,-122.6015000025493,-10.231118679671448
-952.554644042563,-115.06783662106838,-5.867283934880923
-960.8347396919439,-119.01413836529295,-21.676515425757017
-945.5298190513581,-115.29829248520137,-25.384407519387356
-952.74533097439,-122.84011359638615,-9.76854481397827
-949.6290782275295,-111.46823838925627,-33.307908409089755
-941.7038438202649,-99.88752530170855,-29.303686783968026
-930.0617438166959,-107.67999265804328,-25.178424844365814
-930.6348243283895,-92.37619370529183,-44.86170098861487
-929.5437279805031,-92.10260384534985,-13.449343047829792
-922.0549321123932,-103.8020119000882,-17.222293035848125
-918.8836146900319,-104.00289599404486,-36.79717334665763
-922.6004802863364,-103.93967358884025,-32.92847200624067
-910.9859126205178,-96.2910881901567,-32.78030724049498
-902.4335527422719,-92.27666940290518,-9.118016855909001
-895.2720857785279,-92.47296477390344,-24.708539613425586
-902.2969107697328,-72.93306072919907,-9.181239261113634
-905.9332187852121,-61.26291852977317,-5.3504407723330605
-886.911432548322,-57.61141674272051,-12.927044403542496
-902.6517720118493,-65.29824149939073,-20.986167549570954
-905.6334222185967,-57.32579423146539,2.490004231822284
-900.8795052336935,-64.85354325891106,30.058990582920774
-905.4957605298447,-76.60097994728068,10.406305925061057
-904.9512320721144,-76.46413403149904,26.1124848954536
-884.8108171495874,-87.9796872530375,53.9253465760479
-876.4766765409188,-76.29618677122158,69.70932989349065
-868.4973971743664,-37.66852085064727,69.69852090163309
-860.9280437254313,-18.452784590048594,61.89779384397323
-873.0606272274426,-22.369106677611622,46.03080562679406
-895.6901694258489,-49.100559314342824,65.40510775851081
-914.2214721642969,-41.043373629119024,84.72342747013506
-909.9590583940491,-40.9704639198911,96.56090510011065
-894.6000927941756,-29.517521273829498,92.82772404439847
-882.8753957773552,-25.70388460891334,96.91515451249917
-848.2764246710141,-18.268419898742184,93.48370748420716
-821.7383102282636,-22.448134684117413,82.1214176094793
-844.5044943992089,-29.904401605033325,93.57945883660578
-845.050042573152,-49.350593729765016,81.86302152111068
-848.8484854664948,-41.58341533551213,81.77991464975298
-860.2723662004864,-41.45992770212051,85.53298017161825
-891.3186460208125,-52.862292424018406,81.18174911922013
-901.8971820142456,-48.66483457653736,108.48148960144393
-898.1262714586532,-21.681919921685797,100.59775764404768
-896.84448817894,5.672762870093254,131.92170618916757
-886.2119072262191,28.52217627834174,100.60683311834318
-893.2917968929247,40.32467764221218,116.15995268516774
-901.9542861221723,59.45414591119292,84.56822666251983
-909.4155496525318,55.71341895550469,92.3182738243947
-941.0338902683384,40.30550697740819,72.27350828264494
-968.1440655065695,59.789020715534875,63.95252201312376
-975.5788164153917,79.22634130921365,67.70018303906024
-1013.9497177935382,83.42685830533364,71.03587871495364
-1007.6896799620666,129.3469227513983,19.954622628522486
-970.2191879999797,151.95403119311896,-14.881942355442481
-898.1487052153386,162.68756405092466,-49.160212712802036
-857.0979896294863,185.19576001998647,-91.79199828687678
-807.6570490432514,188.50677856352578,-110.68611605390223
-788.7443724411497,176.6831690740467,-118.21162170567932
-799.2953760968323,184.7501440349151,-90.92472964773904
-821.9259380114515,196.6369759295988,-79.52991082581718
-857.8882696945441,188.85960037321615,-115.36355432283196
-898.8237573483301,215.5884017477936,-190.63492630001073
-922.4893312191219,215.6302101125257,-206.68831864092226
-943.4475585444573,226.9398826306639,-258.06060173453733
-932.1062748237167,273.13914537584196,-273.7448568063508
-936.1790213783505,319.4566952017254,-289.6605874585103
-964.0804963978526,323.29388731116137,-317.56410191043835
-989.8548433970827,300.63171419393984,-278.62725803408915
-1051.2050496346867,242.2611187306573,-369.6155160018967
-1085.6306689848216,200.10910963478867,-354.2902010370515
-1104.3832501414856,235.1455389964973,-346.8401543850347
-1109.2982822880394,238.77063013363386,-378.3228727445152
-1088.5776488403278,226.40351190263755,-444.69008274997077
-1078.686401574442,241.3454135714031,-495.61165127744954
-1071.436219300169,252.75501827841316,-511.24084167376225
-1068.0507614730823,225.57550233769948,-518.9468370952364
-1097.3472082719381,210.74882860100035,-472.2407753922084
-1116.9971396960227,214.6645388588356,-484.3223730835709
-1124.1045617004788,222.5979309958039,-468.75640509246284
-1185.736209612865,226.94294177930286,-469.69454400840254
-1186.6845456909343,207.393962260303,-493.1908449878399
-1171.817083305716,168.51932107294542,-500.6857591532277
-1132.323474377081,144.29494271744176,-578.5054019466382
-1086.6503851977996,139.93259675832218,-593.5044077233307
-817.2423814452438,112.4787771563174,-1260.4916051862767
-1006.3681277500473,209.65875196932694,-514.0450612594516
-1156.9802124068872,260.0694426741038,-202.5013638704349
-1275.216307301678,569.3779221242729,100.80455609203959
-1125.8890650731903,245.44671218000033,-80.32304609627141
-1068.754365660037,8.26016019741706,-161.08355044791037
-1104.138518250371,-92.05885801981309,-161.2752570959502
-1104.0161523048137,-182.8432747166464,-361.1233193802165
-980.4928288457323,-167.29872076601086,-245.5109543014179
-863.1816165561124,-74.08126118501222,-102.78229568711028
-1050.0017845033728,-7.466127576695406,-172.52374664130974
-1296.110292505596,87.25344536615461,-180.45509934585206
-1285.382877945068,58.92460728179348,-309.71126735429533
-1276.185037704007,122.89823742052587,-502.0950069595632
-1295.1823507517859,214.80627941243952,-624.352862598339
-1200.0734195673347,310.3016830416095,-678.1948983597866
-1138.6355177354144,206.49355284424348,-551.3371028842673
-1080.6238623791,-9.168798723315302,-388.83104831925283
-1074.811479965126,-15.435444315846903,-219.9640040176819
-923.8231200256969,103.3003115233031,-222.02790963274924
-952.9513136494114,87.52061101395483,-281.28055962025775
-927.7765597834125,44.380089021225395,-323.9281507956336
-915.8621955509783,75.27483901230289,-319.92984352454715
-916.2170567930947,82.90965824211122,-331.7340784059797
-925.2313481158195,32.43635696185752,-359.17158254857674
-947.2612971809947,13.579050950120584,-324.11577857882156
-1000.8545221864756,-12.948560415636331,-309.1310488291109
-988.4761870771366,6.476788709702091,-289.3883232296452
-1034.5020980661084,-20.14459575900027,-278.21427296783304
-1060.4130870378776,-23.531379217163867,-247.19348605283153
-1041.5279427735263,-0.6046356299041977,-262.6860344766052
-1003.7270627584344,29.80814039452821,-289.6952578097516
-992.3021623082296,-8.934141628384822,-285.4685341069581
-953.4938026747158,-47.782168222583664,-269.05824109150427
-963.5278102104186,-24.138518250370925,-230.04185935054275
-962.7089780913974,-43.242697557269814,-202.49320614073108
-1000.7535702813908,-50.54570113137515,-187.33920349966607
-1008.8154466611943,-23.541984265778837,-203.2498355707607
-1008.5146303783658,-19.604859967471057,-195.40923760917337
-975.5798361316048,-16.448532373440475,-245.94637312435955
-955.9299047075201,-20.36342685830534,-233.86579514921
-970.2793512565455,-81.76778002681854,-190.70222757006727
-951.5573615862706,-62.74395435750231,-210.1094665354632
-958.146767754534,-58.542111730305464,-178.82457312130038
-981.9214512601144,-73.97531267048382,-194.82799936777596
-1008.2688787710382,-81.33338092008995,-175.5747375505397
-1011.9031473540915,-88.97268690123539,-167.753514196999
-1026.4463399835827,-100.22036067362454,-140.46080975664475
-992.6916939015873,-58.240071788021396,-175.41872096995408
-996.2708978091398,-116.07021765842568,-155.65458133001587
-1025.1105117445816,-200.29367826933768,-81.2342645041885
-1062.6054768957802,-246.07893623204663,-42.39531338428516
-1057.710839073486,-157.0260996364712,-30.848658818250886
-1021.1744071624869,-111.48047498381203,-97.1734486292465
-1052.2451601719245,-146.06007148210657,-97.52229354570623
-978.5574074735002,-143.64232434113586,-194.54247882814215
-939.7490478399862,-182.49045290695602,-178.13116609647537
-1016.4714759882327,-242.6017039457919,-45.640662203708715
-1065.3893021572098,-326.88226866463066,4.930939719476071
-1036.1540383311324,-314.9373129458072,68.1225494944757
-1074.3322133450263,-302.9648248892334,75.35947545798005
-1038.2954423783863,-283.58103939673595,111.15518551187206
-1091.4226570745363,-340.8880708498825,145.87448313134456
-1087.4049751954033,-375.63286137467946,157.82555714744586
-1033.8086910412833,-368.4153100192217,146.83097693911787
-946.2966456435174,-353.93228064629614,112.77041599322911
-870.646958951324,-304.67896784324927,62.71784962245008
-845.6628920171518,-316.9716467906982,8.188851442643513
-606.3130630745464,-180.55197238608497,329.20824134643334
-610.6621527228973,-456.83490284653783,149.54240234942617
-721.233040844733,-371.7100131033534,53.40814651282548
-775.9550916979805,-300.97739799013937,126.91795873208487
-816.4592393936767,-381.27699061351234,197.2253521844871
-863.164281380492,-427.37938031845744,192.75593602300484
-839.0357563490082,-342.34320588580204,204.60503841780834
-781.4258691806072,-292.63306021934096,189.60195377626408
-693.8067535804786,-243.36547138931238,151.50127719455676
-668.7411093492682,-244.05276011685947,96.93463109216707
-691.9600475187756,-341.4427964697425,2.724487974996559
-642.5456195540781,-438.5483319992047,3.7922634130921367
-602.5656059918525,-446.20640075866896,47.58781031239007
-548.0158871785983,-496.67725472001143,76.04747798687626
-614.2046468467827,-592.8895188469049,75.38058358358869
-710.2670126903683,-650.0058633682247,93.75750128739173
-739.8948672584421,-634.0187525811567,124.65622817169984
-679.422636680212,-544.9720342828592,184.1311762936375
-655.4032212835169,-494.72041930730677,200.02039432425957
-637.8273926366293,-425.77944558029503,137.2568614154681
-641.6268552461851,-437.32161339499226,141.16339422738653
-685.4593566610413,-448.9422993580887,101.30003619992557
-786.002355544452,-517.771104301673,103.95089046718299
-821.1183227707729,-579.402752214059,103.63273900873388
-830.3508333630753,-680.1354183130836,80.2865402558468
-851.4977081878113,-753.8343878898504,40.97219743745316
-826.7308408070035,-835.6961857515055,-5.47612079558259
-805.5737688201375,-844.0915093329528,-60.07556097138167
-795.1583874207809,-852.1921349288494,-91.28917622225735
-801.3133944823156,-747.4713587208681,-68.1868935875146
-951.7011415723006,-535.8007066633356,105.45395216511245
-1436.229497330893,-101.0120683413806,705.0460656799213
-1496.5559084906672,223.32498865565717,1009.1682684708846
-1006.5883864520505,-142.45537466922957,774.4153202163839
-687.3274767632169,-605.7552783060476,301.9563255545982
-842.8556132828235,-762.3796097546054,-41.28657594591426
-920.3214145503308,-940.5281110267015,-128.1875054172424
-697.3706617448365,-1130.6307454635376,9.2303997797413
-652.118715361515,-1149.5464812142782,96.3137258900848
-667.1523914894486,-1075.9535621236612,91.9155878918897
-673.4430208073094,-1009.8892078334601,119.07124247321971
-669.1540944155242,-967.3282925361873,122.91659231235948
-580.1716182386442,-879.101426073124,116.101828861028
-509.2574936395202,-755.6668179245717,136.37072802639028
-509.3400906527714,-709.3441695176233,124.44004833454851
-519.2833434455192,-698.2598542825533,57.53483605512586
-536.7153921063768,-714.0950273538875,2.3824445656773725
-536.0882666353954,-721.6613216541837,22.04045214216884
-556.9190294341086,-666.8413780444903,76.48819933412533
-579.0030234585715,-674.1272503862176,107.57904075295848
-650.1098744219485,-708.7863847491244,63.45989711063412
-631.6876813182893,-751.6277220049661,48.18189697807101
-656.0079129978127,-767.1977688609261,16.47320950579454
-653.4361887086824,-775.2729015514983,-18.78266278494695
-634.8202495245574,-887.5803663840355,-14.200262067066737
-629.2944073664299,-926.8057899486574,-68.92985882029032
-603.1662188412965,-892.4688859090516,-100.05129172551281
-563.4054442648612,-853.8399963290217,-72.1137187520713
-598.3572371808926,-969.4972289211913,-56.54856653393362
-577.6733135168483,-884.3284913808488,-32.978336129055286
-524.6796816445983,-846.3664962041065,-67.63420740008057
-462.94198324606265,-873.8549861573525,-58.76746901337359
-467.7489254740406,-931.9930863240761,-74.34179867742809
-486.4974277658528,-954.8857153054305,-54.92232311747641
-501.4219942589978,-904.4383148169866,-51.39145375841904
-490.05215848429384,-892.9899608938833,-59.10897197309989
-513.9104587193385,-842.7913711614059,-91.03271759469341
-503.0311064430769,-900.9804571387783,-98.52263515063758
-545.1739380930288,-885.1442643512312,-95.28269082714282
-522.1344699770056,-916.2384708335671,-90.9081082734675
-535.4662397454789,-955.2120244935836,-134.14672696588542
-571.2909097398195,-1040.192114534525,-150.0950885368602
-569.1535845574177,-1148.781694054545,-177.1695737076372
-478.48653719669824,-1259.0843968123672,-316.7258951833705
-425.99154655259446,-1266.5997053020146,-245.27132099136813
-422.63973936053605,-1176.9258615327356,-167.03053540199764
-354.54411037408295,-1003.0010248147943,-127.3513381226005
-347.93838874641193,-882.6214864403237,-72.71371977178752
-342.6246475605839,-707.5035817531982,44.5136718451255
-386.22159453024227,-640.8304568838493,106.42982058093234
-413.22164041747186,-741.0379691331904,125.98593811342306
-419.0635946016224,-830.3314587550286,86.953954714403
-375.6461176854482,-1025.4878067433833,-64.79756083881857
-396.00169272891355,-1122.156903733691,-76.55019807987438
-421.46808543182436,-1145.7429397398707,-139.64605650247537
-436.38857306011744,-1249.7743877878788,-104.19664207451068
-476.8978193368786,-1098.3567273227861,-81.76686228222687
-452.79478721071933,-1113.7340478144934,-49.957018961622985
-474.4454018446667,-1001.1940876853973,-31.03781617575829
-431.0768713067154,-939.484941340825,-14.897951899986236
-346.73818276373686,-886.1823354560428,-37.3621981002687
-289.1079012710763,-904.9848827071427,73.4539317707882
-321.2534351689925,-873.186052321639,139.58385381348373
-321.7184257621104,-842.4069381491131,119.84928594372187
-328.90640534739185,-865.3893021572098,139.44313297609276
-288.16364405785873,-841.9613221640418,198.84364181448305
-291.0259874676878,-900.6082607210416,128.35473887617076
-180.18181540077398,-966.3544635527933,228.35320930185134
-137.19363901026347,-997.4262362784438,252.64896779226345
-245.11836355942143,-981.152585235529,247.05276521544056
-244.68294473647987,-938.56209816808,250.84101094665357
-216.7814697169778,-903.7805978596159,270.76422631581636
-196.80624882095316,-861.2706683729918,282.6938862914451
-223.4810052362428,-818.5068295493364,282.1503775499279
-180.00234534728986,-837.8702207175744,318.1881682327808
-164.8330469630302,-872.8077376066242,318.5328323127674
-138.48561945210648,-904.0681578316756,307.2598695782964
-99.9220936813285,-977.7344964896271,323.78437080960373
-139.9825628527581,-1020.2974512193257,288.00660776106014
-156.81501838038477,-1028.2614348426835,248.5344128728975
-111.07258849862085,-996.8521360505372,339.37991057088817
-128.4597696461075,-922.8554093395809,378.11587035328074
-168.0961388445596,-802.1189702905683,432.05987773602607
-131.23441746162044,-763.2208756303121,487.4253695196627
-146.43124818363052,-732.1521620533007,487.0929420342319
-146.0488546037638,-755.2273202367782,502.87508986249134
-142.33096929124628,-755.2915623581958,499.00628655045307
-122.7350828264494,-844.1812443596947,527.0719358802446
-86.24453814503426,-902.9199573758625,480.72175513554583
-83.07322072267289,-883.811495260869,457.15713316983886
-43.80160401360302,-914.8200455813148,485.32169497228927
-50.471771705934245,-941.5335512126976,520.633447711502
-72.91154471710524,-902.565096133746,531.9400610810012
-86.03621012272286,-828.4959695716683,582.5139063798546
-84.2923934269093,-754.681772062835,617.6125384305549
-110.3128999199523,-696.3060780184875,632.7237129906748
-98.4530905049125,-692.4576690307088,640.7376627084683
-49.72166845966768,-693.186766122988,602.224001060505
-12.250258752989046,-709.1983500991674,575.3677351593052
2.755303798952752,-748.0393406514968,571.7987284138825
-8.96741496841429,-809.7811179148844,579.680115023989
22.379303839741404,-852.3695655499076,603.8412709742879
3.5754105632402506,-844.3811087374385,615.3069600730117
-1.7591532276567434,-836.0031203316117,681.9168625371559
3.0751581834775386,-793.3055630618001,701.4689012047947
-7.394410935436669,-792.9425440899798,732.7068876731606
-48.938016549994146,-749.922756496867,747.6385921797964
-42.15873922287428,-727.0433838262812,716.2660031713175
-42.405000688308455,-684.6242090826124,700.4206329378535
-0.8087073567426187,-642.6690052158485,669.5048767927887
10.370207971121637,-658.3012547608001,661.8763798035008
42.15272289721771,-677.6095812535373,693.8138915939694
41.880866554837795,-716.2965946577068,693.9403364043787
39.800747451984115,-754.4411190365722,752.9074658522534
-5.432323984235188,-726.7976322189535,775.6848669015413
-59.0812356921069,-703.1351174968007,778.7256606486416
-66.07924214691053,-699.0358583206295,798.2297726542704
-13.031259400508839,-672.6445830125477,767.5383540760607
0.8555021337561758,-677.0089684040933,724.5909663340693
-4.197529227615955,-692.7278938271479,693.1704506635804
10.20746126353036,-700.8234208419798,665.9419883446437
-12.586153273543975,-692.8390428943626,673.4226264830498
-19.91128468947092,-696.5457113285373,685.0993968378601
19.714173545502288,-696.5691648014358,717.0899338714037
35.97405841954185,-731.2333977454076,748.8469558921753
31.302534504647358,-731.4087889340398,725.2303283996065
36.43751943834031,-723.3938195000333,760.6012246791719
67.3463415131569,-692.7156572325922,757.036296798601
115.91420107784005,-678.037862062988,710.6188147838458
147.20419307306778,-651.1265314862875,718.8458851901516
138.5967685193211,-624.2600684229579,687.229584006771
174.12368137947212,-601.1441215909613,707.3067765240934
193.30862221043887,-612.8994100941709,707.6341054284593
219.7100946806504,-597.8035312772456,688.3553507058987
228.20840959960847,-640.1452075887281,720.0226376999282
259.20064446064663,-655.7896937282355,728.3883895111991
262.53613619329747,-671.3974700840756,716.7177374536667
252.12075479394088,-663.296844488179,747.9312507329211
235.91644445350863,-659.5147170542439,724.1280151733774
239.49666807727414,-640.3032636017397,712.3431548999914
231.21657242789334,-644.2495653459642,696.5334747339816
245.18464511326502,-617.698194592445,649.5582079507274
249.3114366271867,-636.9687915853019,661.4582961561798
212.38649283904294,-678.7475845472206,715.9906797938135
162.23888891721438,-763.3361035623786,731.2242202994908
174.1012476227866,-856.0354453355633,759.1868782917714
208.15670998761044,-906.6653750261303,752.0182733145367
231.22269072517122,-895.2720857785279,748.400320190891
270.9834653016066,-875.952542407448,780.32763481923
259.3148526765002,-891.3380206288591,780.2052688736726
285.14222491880514,-860.9382408875612,741.2429320919989
313.97877970560796,-815.3334726945492,674.802302519209
347.21337051898456,-769.6206145829616,624.1264855990579
371.1603860645583,-735.831298149725,530.1800308974014
387.9999796056758,-732.7272819974202,459.7788235534052
417.7369438085381,-752.5485257452851,432.81854659848176
447.9378788883054,-764.5291715315628,417.6135581467678
448.59253669703725,-768.2266625198208,437.25839098978753
483.5739013832451,-764.5577235855262,445.6190442199936
518.8265105821051,-702.891405321899,449.86412281462077
583.9792385779039,-618.5251844411702,423.08331591318137
607.0431798830386,-529.8945103577674,403.5068040564312
646.6662927707221,-433.37123278591577,415.5476130992745
658.2798407203276,-367.79430284551813,403.7270627584344
666.9402905171492,-290.37642824002086,415.3691627620034
683.4974226672717,-205.24745963198444,431.02894464470546
695.1395226708407,-193.73078472261173,431.1645669010315
768.5458336944829,-205.83379645444674,440.15336531843195
803.0377345984614,-291.110623913365,452.73156480551467
767.7055875349891,-422.3113907399572,460.4946643349156
785.4109201409249,-464.33593530920353,535.4692988941177
768.3786002355545,-436.59353601892605,593.9897926407082
738.1766454395743,-347.37448568063513,593.2362223593175
766.321832633978,-277.7747752800396,613.0462492288398
773.7280314888367,-223.84300449184994,593.352470007597
793.9765363299394,-200.5741002279066,617.1251140807514
855.494995742685,-162.46628563270843,606.1437901831921
829.7746937027425,-158.08048620069036,641.0660113290472
764.7025232877692,-153.60393202571726,651.8495102812888
722.3394329358141,-72.17010905864899,635.2413923205173
786.7283934880924,0.41937460804658067,588.8657186704941
865.741104250687,76.55325722851332,519.1497606216191
878.4539062778829,118.23813432721676,432.85729581457485
914.534525041681,136.6338148093386,358.76777492823754
946.4618396700199,73.88506778563527,292.74013042170367
995.9027802562548,38.577087996410604,281.8250880779879
1008.6451540536269,6.89262898135449,211.47996512570555
1011.4350976123345,-8.85145284067444,184.10262423967413
1029.5564744331655,2.2981038377019676,149.0152090673166
1021.2763787837846,-1.647922583145111,133.2055289013068
1006.8188423161835,-1.2894719399591095,160.46050384178085
953.5519264988556,-20.01131884996406,183.27359495852306
893.0154537992079,-54.011614567665816,221.72709334992072
808.6492329184789,-91.87326966905111,240.2145482912106
723.9832154711345,-114.36219300168764,246.8712557295305
653.9939734771814,-144.8792401074781,234.15233540505682
563.783758979876,-175.4870419562236,193.65736515527732
481.79755574023756,-190.575782759658,165.0084381516624
387.07815614914375,-178.8368097158561,96.83133383979239
305.41928181387124,-166.8112964162074,72.01990486047734
234.91100426751237,-174.2868359735486,39.59201154318754
231.9854384524787,-177.88643420536067,67.03267680604489
309.8734022321588,-236.2050241417814,103.71737545441106
532.9047126184784,-337.46182437427666,225.1390637985449
690.372349375169,-465.2587784819486,349.5913487276491
708.9240464378764,-522.5199227055111,452.1034196183203
691.9192588702565,-510.2170465959324,514.6008065955244
793.4717768045153,-452.7213676433849,543.4006515986601
910.6290119459755,-387.57169879622506,576.3323866967824
1034.236971850734,-345.9682970229386,578.0434705021593
1138.5539404383762,-308.08380027838257,579.4782112138192
1144.6416462298544,-319.1385437432763,646.3257075555873
987.9612303895826,-363.93263754697074,691.2248321292185
796.9061810098251,-390.06898380180803,629.5819673384898
714.7282711221468,-335.69261674475996,581.0720276547038
683.2180204249158,-297.00662305680333,552.9972008789954
710.8727241208773,-239.1152942136204,561.0651955560768
690.8414188331388,-192.8160992795705,529.2123202112853
664.5205039437526,-157.6858560262679,540.4730463512005
584.5523190895974,-176.13150260282566,570.7341446875336
496.2255204376623,-268.05687977035996,597.1937409818848
427.38243946709633,-329.1817287248959,623.8409650594241
375.1525750383669,-355.3670213579561,678.0919070222758
359.82114177624373,-382.261016759036,685.8019813086019
371.24502251023546,-401.6937486297564,686.0395751862258
323.42339127020955,-471.2475718007679,654.1601872198968
272.07558136570594,-513.6555296660939,626.06190697129
194.4068565718161,-540.2446299194935,613.2145024039811
98.20682903947834,-558.7759326579414,619.685621491539
-23.820672706785704,-627.0153416304244,669.1071874697273
-88.83645281518154,-730.657258085075,703.8050710487273
-111.13785033625143,-788.2018834158455,738.9863001126787
-119.1456817567671,-753.4611717559004,723.0511948524726
-65.44497866243826,-634.2206563913263,692.0559008427955
8.258916143637228,-507.2211203622033,680.9583292969568
33.75117904687126,-460.46101369988736,740.0508838390276
29.207527545084208,-455.74686564729046,830.2335659985827
43.71329658955913,-462.82063701671825,916.8166499263256
34.90794511887342,-496.7975812331429,1003.1407259359722
-27.000147858850884,-545.5930414565627,1116.1915638877701
-110.11099610978266,-637.2063854629257,1181.9734567869764
-199.49829962321488,-899.3213788602634,1212.9218438508565
-255.81416691734694,-1158.2446605109799,1197.2488056573857
-213.0350323504969,-1205.8144218464001,1107.7789051307022
-85.21778589018678,-1133.2616132930207,1113.3771471399511
-217.27195321542018,-1525.4240744800725,1273.6357471715623
-639.8066618060194,-1989.0992336832662,1402.3035389251172
-600.9860655779497,-1805.9480046703004,1151.0964498580047
-424.7128224215201,-1236.9973436392654,896.7129447874656
-206.8514732349987,-601.9303227911673,717.3010151274901
-34.13398051322317,-275.18061723422375,632.4443107483188
39.24408437131947,-213.9150474422968,625.4878067433834
46.89909398214478,-337.5678748604264,649.5673853966441
19.599353499920976,-422.4031651991251,657.293775142378
-10.7092636119368,-464.51642507890057,680.5300484875061
28.588661775427905,-453.0364599531951,700.7030943288484
37.27715376810634,-448.98818658767266,728.2915164709663
52.745432946011135,-441.3688670443017,728.4974991459877
41.32094038229162,-421.93613517358125,728.2609249845768
38.830997333442106,-421.5649584720573,767.4679936573652
19.78208664528662,-429.08434582655656,775.05774143056
10.04863026619692,-420.8134276230925,825.9038509582783
3.7052306343144705,-420.4116594351793,865.0538155231401
4.631693799615568,-385.4221370192676,884.5732232719635
-1.4122253776773925,-361.7738983240964,927.5736362570298
-5.1297333951961175,-342.40132970994176,927.4522900276854
-15.653663585424178,-349.77591736219813,958.7167891175886
-35.02969923470299,-365.1012323270434,958.4781755237518
-51.12489994034661,-384.46258406285534,942.6042532363246
-58.967843249223755,-403.7474570826939,942.5512279932497
-51.80586642737327,-423.2525888045357,930.9509363544126
-60.65802287223467,-431.20433583333767,899.4478236706725
-51.11531460794461,-447.2475310121194,844.7002799121007
-43.980564208980645,-470.62146604599945,833.1122248678194
-33.428642808706336,-497.9977872158179,809.8147685499126
-0.16538471343425126,-506.34518413525524,771.0951242269277
0.08053025243074853,-529.453992953761,782.9503449190091
7.378799080215977,-548.9264937567876,775.2759607001373
-13.278438610534689,-591.6067158509787,743.7137044760444
-9.64246710140568,-622.5867141174612,743.872780205269
-6.170465959323521,-638.1598201220601,736.1280355677017
-13.986121662341372,-653.5748701136474,736.062773730071
-42.37746835055804,-700.0647519795242,704.3975261684674
-14.639861726481522,-688.4960715432895,724.3972202536035
-50.22030968781389,-719.3486052831498,704.3455206416055
-35.324703135117495,-715.7357507405691,688.8580707988967
-22.809828024860686,-715.5858524572612,716.5168533597101
-0.4796184221931037,-731.4108283664657,697.2819464343074
-11.412663855648974,-738.8873876400198,716.7666838318897
-8.376866717992383,-758.4322882941678,697.254414096557
-24.144942462512685,-769.9877124196337,689.2078334599482
-15.81110776870797,-758.3038040513326,704.9920207206336
-20.809756644725777,-766.2851228503108,673.5470318610331
-27.944099157204555,-762.2205340253809,689.1252364466969
-32.56127219794732,-754.6583185899365,665.4831160488037
-24.881891369631834,-739.2769192333775,661.6214507502563
-23.08260211183228,-715.6541734435307,708.664018803567
-24.14616612196826,-712.0596737927835,677.2384045520133
-35.543024376316076,-708.0674848189749,680.9797433374293
-35.406688318640924,-708.0328144677337,684.9056507573944
-23.1648932102196,-688.6418909617454,700.722468936895
-34.01640723386682,-684.5130600153979,720.168457118384
-9.96914338739529,-649.7019879367573,740.03456837962
-17.43051908653822,-653.4423070059603,747.7844115982523
-41.260267267619426,-657.3039723045077,727.8173484319315
-40.60611931699409,-641.6921170838156,743.4730514497817
-24.81040926310208,-645.5772358552615,755.4975450332173
-29.127683765608033,-634.0778961215095,739.6950028806984
-20.820973523068535,-626.2627910652466,755.4914267359394
-24.810817149587272,-626.2678896463115,751.5073954918347
-14.204850790025139,-626.5962382668904,724.1953164434339
-14.368413270586798,-630.49971193017,720.2806259018116
-29.318370697434908,-641.8491533806142,735.7935686498448
-17.976373175345305,-634.2696027695494,728.0885929445836
-21.802246434817192,-649.6805738962847,732.0083820672708
-21.311151106647024,-657.2815385478223,747.7395440848812
-29.78142382974818,-668.9990975511516,728.0294494042308
-33.771267456266926,-669.0031764160035,724.0443984439132
-26.146339473724467,-661.359383683521,720.2082260506902
-38.1428928329246,-665.2414433063279,708.2683689129316
-22.483620808329043,-669.1612324290151,716.3649156439764
-29.86300112678642,-680.6055074872663,728.0671789041111
-14.612737275216311,-684.6272682312513,724.3849836590477
-26.200690347876186,-669.0969903075975,720.2337189560146
-15.076504208878672,-673.1575002676756,708.6405653306686
-17.539322806462962,-668.9175202541134,747.8353974089011
-14.25889574931297,-653.643191099917,728.209939173928
-18.875660903570537,-665.3903218734226,708.5569486012043
-14.913043699938308,-669.255046320609,712.5542361560779
-18.875253017085345,-684.6996680823728,712.5470981425871
-22.592730443117684,-665.3270994682181,712.4257519132426
-30.05409594509848,-669.0674185374211,720.1766148480879
-33.880377091055564,-665.1690434552065,720.1052347131794
-41.178282084096,-665.006908577343,731.7697684734339
-22.129269424319215,-657.4865015066307,724.1800207002392
-25.819214512601143,-653.5534560731749,728.0365874177218
-18.24863740421041,-653.647269964769,724.2259079298232
-17.45774550942473,-657.3111103179986,747.797667909021
-17.94833097948841,-669.0194918754112,736.0556357165801
-30.108956677356694,-657.4956789525476,716.2119582120297
-21.720261251293767,-657.384529885333,735.9597823925602
-25.682878454925998,-653.5198054381466,731.9635145538998
-25.87356538675287,-661.2910626972515,728.0620803230462
-10.895973650533058,-665.3821641437189,716.5260308056269
-22.3471827790326,-669.1265620777739,720.2918427801544
-22.102144973054003,-653.6176981945925,724.1677841056835
-30.272417186297055,-661.3981328996142,712.2972676704073
-34.34383810985403,-673.0096414167938,708.3509659261829
-22.67471562664111,-657.6231434791698,708.4743515879532
-18.73932484589539,-665.3566712383944,712.4838757373824
-21.938174606007152,-669.0245904564761,732.0716044724754
-21.720261251293767,-657.384529885333,735.9597823925602
-33.934829936828585,-672.906650079283,720.1307276185039
-22.21084672135745,-669.0929114427456,724.2187699163323
-25.73722932907772,-661.2574120622232,731.9879877430112
-25.90079180963938,-665.1598660092897,728.0743169176019
-14.831466402900073,-657.6486363844942,712.5165066561976
-22.320058327767384,-665.2587784819485,720.2796061855986
-34.316611686967526,-669.1408381047555,708.3387293316272
-22.701534163042428,-680.8012930001581,712.4767377238915
-45.95860971891523,-680.6575130141283,708.203107075301
-21.392728403685258,-668.887948483937,747.7772735847615
-33.934829936828585,-672.906650079283,720.1307276185039
-10.023524853033402,-657.4395945608338,740.0600612849445
-18.193470757088303,-684.5293754748054,732.179694391051
-41.75085273768311,-669.0123538619202,716.0763359557036
-33.44373460865842,-680.5076147308205,735.8629093523274
-37.62467305348922,-668.9736046458271,723.9872943359865
-26.06435429020104,-669.0633396725692,724.1606460921926
-22.647081317269407,-673.0636863760816,712.4512448185671
-17.811994921813262,-668.9858412403829,739.9825628527582
-14.85859085416529,-661.5174396965325,712.5287432507535
-18.57576236533373,-661.4531975751149,716.3975465627916
-25.928426119011085,-649.7193231123779,724.097423686988
-26.446238011961274,-665.2965079818288,712.3686478053158
-14.640269612966714,-669.1867253343395,720.4070707122208
-33.74404103338041,-665.1343731039652,724.0321618493574
-21.938174606007152,-669.0245904564761,732.0716044724754
-26.17346392498968,-665.2281869955592,720.2214823614589
-14.340371074729905,-665.2496010360317,728.2476686738082
-34.07116599450373,-672.9403007143113,716.2048201985389
-37.78823553405088,-672.8770783091067,720.0736235105771
-22.23807314424396,-672.9617147547838,724.2310065108882
-14.749481219376648,-665.3515726573295,716.4679069814872
-18.521003604696816,-673.0259568762015,720.3622031988498
-22.674307740155918,-676.9324896881199,712.4645011293358
-37.59714071573881,-684.4141475427389,727.9641875666003
-22.456394385442533,-665.2924291169768,716.3526790494205
-30.108548790871506,-676.8050251614977,720.2010880371993
-30.026563607348077,-684.5079614343329,724.1535080787017
-26.582574069636422,-665.33117833307,708.4417206691379
-18.548128055962028,-676.8937404720267,720.3744397934056
-34.15274329154197,-684.5467106504261,716.242549698419
-25.57325896203087,-676.6632846078937,739.8918081098032
-26.200690347876186,-669.0969903075975,720.2337189560146
-30.163307551508417,-665.2332855766241,716.2364314011412
-18.602886816598943,-665.3220008871532,716.4108028735604
-34.125924755140645,-661.3685611294377,712.2401635624806
-34.09869833225414,-657.4997578173995,712.226907251712
-18.030316163011836,-661.3165556025758,732.1042353912908
-29.72707295559646,-661.261490927075,728.0039564989065
-22.674307740155918,-676.9324896881199,712.4645011293358
-22.429167962556026,-661.4236258049385,716.3404424548648
-41.696093977046196,-680.5840934467939,720.0409925917618
-45.195250161879954,-668.8797907542332,727.797973823885
-30.190533974394928,-669.1020888886624,716.2496877119098
-37.51556341870058,-672.8087573228371,727.9264580667201
-22.04728424079579,-665.1894377794661,728.1324407417417
-30.926667108543693,-677.0099881203062,696.6425843687703
-26.500588886112997,-673.0341146059052,712.3931209944272
-22.34677489254741,-688.4369280029368,724.281992321537
-37.5699142928523,-680.5453442307007,727.9519509720445
-18.95723820060877,-676.9967318095376,708.5956978172975
-27.209495597375255,-677.0742302417239,692.773781056732
-22.128861537834023,-676.7958477155809,728.1701702416218
-18.329806814763455,-684.5630261098337,728.253786971086
-26.282267644914423,-680.7034002437123,720.2714484558948
-30.353994483335292,-673.0045428357289,712.3360168865005
-22.620364752489383,-649.8865565713063,708.4488586826287
-25.982776993162805,-657.4569297364544,724.1229165923124
-30.108956677356694,-657.4956789525476,716.2119582120297
-30.02697149383327,-665.1986152253828,720.1633585373191
-10.759637592857908,-665.3474937924776,720.4529579418048
-26.582574069636422,-665.33117833307,708.4417206691379
-34.180275629292375,-669.1061677535142,712.2656564678051
-18.657339662371964,-673.0596075112297,716.4352760626718
-18.38456557540037,-672.9912865249602,724.2891303350278
-18.602886816598943,-665.3220008871532,716.4108028735604
-22.374409201919107,-672.995365389812,720.3040793747101
-10.78686401574442,-669.2162971045159,720.4651945363606
-18.166652220686984,-661.3512259538171,728.1773082551126
-14.09492538226612,-669.0500833618005,736.1137595407199
-22.456394385442533,-665.2924291169768,716.3526790494205
-13.904136478817946,-661.2778063864827,740.0151937715734
-18.521309519560706,-653.7166106672514,716.3720536574673
-25.928018232525893,-669.0286693213279,728.0865535121576
-29.972212733196354,-676.7703548102563,724.1280151733774
-30.790331050868545,-676.9763374852779,700.5684917887353
-30.763104627982035,-673.1075341732396,700.5562551941796
-18.875253017085345,-684.6996680823728,712.5470981425871
-30.49043251263174,-673.0392131869701,708.4090897503226
-34.61610233871914,-692.3873086120134,704.4882809114224
-34.316305772103625,-688.4501843137056,712.3288788730098
-30.299235722698377,-684.5762824206024,716.2996538063458
-42.65014046590834,-700.1330729657938,696.5446916123244
-22.455986498957344,-684.601775325927,720.3428285908033
-26.06394640371585,-688.3726858815193,728.1507956335753
-26.309799982664828,-665.2628573468005,716.2945552252809
-17.83922134469977,-672.8546445524211,739.9947994473139
-11.522997149893186,-677.1252160523727,700.8580911932211
-11.059536131094717,-669.2846180907854,712.6123599802175
-15.076504208878672,-673.1575002676756,708.6405653306686
-14.476809104026353,-665.28325167106,724.3217612538432
-19.20268389307256,-673.1962494837687,700.7296069503858
-22.129269424319215,-657.4865015066307,724.1800207002392
-14.667496035853222,-673.0555286463778,720.4203270229896
-7.178904110985914,-665.4453865489235,712.6572274935886
-26.582166183151234,-684.6405245420201,712.4318702105205
-30.272111271433165,-680.7074791085641,716.2874172117901
-26.500588886112997,-673.0341146059052,712.3931209944272
-26.391377279703065,-676.8692672829152,716.3322847251611
-34.234728475065396,-676.8437743775908,712.2901296569165
-14.640269612966714,-669.1867253343395,720.4070707122208
-30.244884848546654,-676.8396955127389,716.2751806172344
-45.495148700116765,-672.816915052541,719.9573758622976
-21.938174606007152,-669.0245904564761,732.0716044724754
-38.22406224347765,-696.1571994513928,712.2962479541944
-26.364252828437852,-673.0004639708769,716.3200481306053
-11.550223572779696,-680.994019364411,700.8703277877768
-18.929603891237072,-692.4372747064493,712.5725910479114
-14.994620996976545,-680.8614562567238,712.591965655958
-38.715157571647815,-688.5572545160683,696.5640662203709
-15.076504208878672,-673.1575002676756,708.6405653306686
-7.2604712108620175,-677.0517964850383,712.6949569934688
-30.84468192502027,-684.7139441093545,700.5939846940597
-14.476401217541161,-684.5925978800101,728.3108910790128
-18.357441124135153,-669.1224832129219,724.2758740242591
-19.039223384132196,-669.2937955367022,704.6432777757951
-17.866345795964985,-676.7234478644593,740.0080557580826
-19.20268389307256,-673.1962494837687,700.7296069503858
-22.020159789530577,-661.3216541836408,728.119184430973
-22.810643797831066,-676.9671600393611,708.5375739931578
-14.694722458739736,-676.924331958416,720.4325636175454
-26.554939760264723,-680.7717212299818,712.4186138997518
-29.917759887423337,-669.0337679023928,724.1025222680529
-19.066347835397412,-673.1625988487405,704.6565340865637
-15.158489392402098,-665.4545639948403,704.6881452891662
-30.05409594509848,-669.0674185374211,720.1766148480879
-25.928018232525893,-669.0286693213279,728.0865535121576
-26.25504122202791,-676.834596931674,720.259211861339
-27.04603508843489,-673.1707565784443,696.6874518821412
-22.674307740155918,-676.9324896881199,712.4645011293358
-29.944986310309844,-672.9025712144311,724.1157785788216
-26.41860370258957,-680.7380705949536,716.3455410359297
-26.52781530899951,-676.9029179179436,712.4063773051961
-22.810643797831066,-676.9671600393611,708.5375739931578
-34.47976628104399,-692.3526382607721,708.4141883313874
-34.94363518632765,-680.8828702971964,692.6707897192211
-37.59714071573881,-684.4141475427389,727.9641875666003
-22.837870220717576,-680.8359633513994,708.5498105877135
-15.322051872963756,-669.3580376581199,700.7744744637569
-26.282267644914423,-680.7034002437123,720.2714484558948
-11.08676255398123,-673.1534214028237,712.6245965747734
-22.292424018395682,-680.6993213788603,724.2564994162125
-18.95723820060877,-676.9967318095376,708.5956978172975
-14.721846910004947,-680.7931352704544,720.445819928314
-15.104138518250373,-657.7169573707638,704.6636721000546
-11.004777370457804,-680.856357675659,716.5770166162757
-15.512840776411926,-677.1292949172246,696.8730402329032
-22.619956866004195,-669.1959027802563,712.4390082240113
-38.06090764940118,-672.9453992953762,712.2197692382211
-18.930011777722264,-673.1279284974993,708.5824415065289
-23.137768758954387,-684.7730876497071,700.7092126261263
-11.74131839109176,-669.4559304145657,692.9797637317536
-25.73682144259253,-680.5667582711732,735.9781372843938
-41.80489769697094,-696.0593066949469,720.0909586861977
-15.240066689440331,-677.0609739309551,704.7268945052592
-18.902785354835753,-669.2591251854609,708.5702049119731
-30.272111271433165,-680.7074791085641,716.2874172117901
-19.311487612997304,-688.6714627319218,700.7795730448217
-42.07797769880643,-676.8182814722663,708.247974588672
-23.083315913181362,-677.0354810256307,700.6847394370147
-27.209495597375255,-677.0742302417239,692.773781056732
-31.063003166218845,-677.0446584715475,692.7156572325922
1.3461273727521632,-665.2995671304676,736.3319788102972
-18.630113239485453,-669.1908041991915,716.4230394681161
-22.864994671982792,-684.7047666634377,708.5630668984822
-26.746136550198084,-669.2336322801366,704.5280498437286
-26.009595529564123,-680.6350792574427,728.1253027282507
-37.706250350527455,-680.580014581942,724.0250238358665
-25.73682144259253,-680.5667582711732,735.9781372843938
-22.674307740155918,-676.9324896881199,712.4645011293358
-30.3812209062218,-676.8733461477672,712.3482534810563
-19.011589074760497,-684.734338433614,708.620171006409
-26.52781530899951,-676.9029179179436,712.4063773051961
-34.42541540689227,-684.6150316366956,708.389715142276
-23.001432701279235,-684.738417298466,704.6361397623042
-18.38456557540037,-672.9912865249602,724.2891303350278
-26.718502240826382,-684.6751948932613,708.5049430743425
-18.793675720047112,-673.0942778624709,712.5093686427068
-23.19211963310611,-692.5106942737838,700.7347055314507
-26.200690347876186,-669.0969903075975,720.2337189560146
-19.147925132435645,-684.7690087848553,704.694263586444
-22.23807314424396,-672.9617147547838,724.2310065108882
-27.26425435801217,-665.5024906568502,688.8091244206738
-29.944986310309844,-672.9025712144311,724.1157785788216
-26.337026405551338,-669.1316606588388,716.3078115360496
-41.80520361183483,-676.7499604859969,716.1018288610281
-22.810643797831066,-676.9671600393611,708.5375739931578
-18.493777181810305,-669.1571535641632,720.3499666042941
-22.810643797831066,-676.9671600393611,708.5375739931578
-15.212942238175117,-673.1921706189167,704.7136381944905
-7.178904110985914,-665.4453865489235,712.6572274935886
-7.2880647315852,-661.6112535881265,708.7180637628549
-11.08676255398123,-673.1534214028237,712.6245965747734
-26.854838298501527,-684.7088455282895,704.5780159381645
-11.004777370457804,-680.856357675659,716.5770166162757
-22.646673430784215,-692.3740523012447,716.4413943599498
-22.864994671982792,-684.7047666634377,708.5630668984822
-19.147925132435645,-684.7690087848553,704.694263586444
-11.577348024044909,-684.8618029602362,700.8825643823325
-15.103730631765181,-677.0263035797138,708.6528019252243
-33.66205584985699,-672.8383290930135,727.9835621746469
-27.073159539700104,-677.0395598904826,696.699688476697
-22.592322556632492,-684.6364456771681,716.4159014546253
-30.21765842566014,-672.9708922007006,716.2619243064656
-22.864994671982792,-684.7047666634377,708.5630668984822
-7.3972253521844875,-657.7771206273295,704.7789000321212
-7.178904110985914,-665.4453865489235,712.6572274935886
-18.656931775886775,-692.3689537201798,720.4254256040545
-14.913043699938308,-669.255046320609,712.5542361560779
-15.322051872963756,-669.3580376581199,700.7744744637569
-14.995028883461734,-661.5521100477738,708.6028358307884
-26.500588886112997,-673.0341146059052,712.3931209944272
-26.66415136667466,-676.9375882691847,708.479450169018
-34.398188984005756,-680.7462283246573,708.3764588315072
-30.353586596850104,-692.313889044679,716.3251467116702
-10.732105255107506,-680.7880366893894,724.4298511724188
-27.07275165321491,-696.3499258156455,700.6898380180796
-26.991174356176682,-684.7435158795308,700.6521085181995
-22.974206278392725,-680.8696139864277,704.6239031677485
-26.609698520901638,-669.1999816451083,708.4539572636936
-18.793675720047112,-673.0942778624709,712.5093686427068
-26.882472607873233,-669.2683026313778,700.6011227075505
-19.039223384132196,-669.2937955367022,704.6432777757951
-26.99158224266187,-665.4341696705808,696.6619589768169
-11.059536131094717,-669.2846180907854,712.6123599802175
-10.541316351659335,-673.0167794302846,728.3312854032723
-26.364252828437852,-673.0004639708769,716.3200481306053
-30.299235722698377,-684.5762824206024,716.2996538063458
-30.790331050868545,-676.9763374852779,700.5684917887353
-26.337026405551338,-669.1316606588388,716.3078115360496
-26.609698520901638,-669.1999816451083,708.4539572636936
-30.926667108543693,-677.0099881203062,696.6425843687703
-15.812739314648736,-681.0664192155324,689.033461987529
-27.373058077936914,-680.9766841887903,688.8590905151098
-18.657339662371964,-673.0596075112297,716.4352760626718
-22.374409201919107,-672.995365389812,720.3040793747101
-18.684464113637176,-676.928410823268,716.4485323734406
-14.940576037688714,-653.8145034236973,708.5773429254639
0.2009350797673008,-673.3114774158353,704.9451137748365
-22.701534163042428,-680.8012930001581,712.4767377238915
-18.657339662371964,-673.0596075112297,716.4352760626718
-27.182371146110043,-673.2054269296856,692.7605247459633
-18.548128055962028,-676.8937404720267,720.3744397934056
-26.445830125476082,-684.6068739069918,716.3577776304855
-34.50740059041569,-676.9120953638603,704.4372951007736
-22.56519810536728,-680.7676423651299,716.4036648600695
-22.89262898135449,-669.2642237665259,704.5851539516553
-6.879005572749105,-661.5082622506158,720.4978254551759
-22.455986498957344,-684.601775325927,720.3428285908033
-30.49043251263174,-673.0392131869701,708.4090897503226
-26.445830125476082,-684.6068739069918,716.3577776304855
-30.84468192502027,-684.7139441093545,700.5939846940597
-19.22991031595907,-677.065052795807,700.7418435449415
-26.854838298501527,-684.7088455282895,704.5780159381645
-14.994620996976545,-680.8614562567238,712.591965655958
-11.114294891731632,-657.7128785059119,708.6477033441595
-30.462798203260036,-688.479756083882,712.3859829809364
-19.120698709549135,-680.900205472817,704.6810072756753
-19.748130095394455,-673.3328914563077,685.0229181218868
-14.967394574090031,-676.9926529446856,712.5797290614023
-18.466142872438603,-684.597696461075,724.3268598349081
-30.926667108543693,-677.0099881203062,696.6425843687703
-10.895973650533058,-665.3821641437189,716.5260308056269
-23.51965248071462,-681.0072756751797,688.9172143392494
-26.41860370258957,-680.7380705949536,716.3455410359297
-14.667496035853222,-673.0555286463778,720.4203270229896
-18.521003604696816,-673.0259568762015,720.3622031988498
-21.96540102889366,-672.8933937685143,732.0838410670311
-22.647081317269407,-673.0636863760816,712.4512448185671
-30.162899665023225,-684.5426317855741,720.2265809425238
-26.554939760264723,-680.7717212299818,712.4186138997518
-15.43126347937369,-665.5228849811099,696.8353107330231
-22.701534163042428,-680.8012930001581,712.4767377238915
-23.001840587764427,-665.4290710895158,700.6459902209216
-18.38456557540037,-672.9912865249602,724.2891303350278
-30.95379155980891,-680.8787914323444,696.654820963326
-7.314852676500131,-684.7894031091148,712.7204498987933
-23.219753942477812,-677.0701513768719,696.7578123008368
-18.930011777722264,-673.1279284974993,708.5824415065289
-18.930011777722264,-673.1279284974993,708.5824415065289
-10.568542774545845,-676.8855827423229,728.3435219978281
-26.773261001463297,-673.1024355921747,704.5402864382843
-22.89262898135449,-669.2642237665259,704.5851539516553
-26.473362463226486,-669.165311293867,712.3808843998715
-30.899440685657186,-673.1411848082679,696.6293280580015
-27.209495597375255,-677.0742302417239,692.773781056732
-23.05578357543096,-692.4760239225425,704.6616326676287
-22.56519810536728,-680.7676423651299,716.4036648600695
-30.681119444458613,-680.810470446075,704.507655519469
-15.076504208878672,-673.1575002676756,708.6405653306686
-14.721846910004947,-680.7931352704544,720.445819928314
-22.3471827790326,-669.1265620777739,720.2918427801544
-30.32646214558489,-688.4450857326407,716.3129101171145
-29.481117405026186,-684.3713194617939,739.8591771909878
-40.87756777288881,-699.6884766969354,747.5896458015735
-59.16362876211551,-676.1218152988024,770.7841107819695
-70.42415095878818,-672.0959756899656,778.4513569873506
-36.53388262046673,-668.7003207007491,755.3996522767715
8.425262449460316,-638.484089877787,712.7999877634055
-29.399132221502757,-692.0742557346291,743.8115972324903
-90.45188723978117,-818.8902428454163,786.4958981915333
-120.51414091458349,-922.7310039615976,829.5666715952951
-141.03389026833835,-1003.9972875548737,809.9096021577196
-124.96622190044512,-969.1943732059369,821.8066312145331
-103.70819800849426,-976.5679411419803,881.0195122697354
-111.79658700983516,-1011.3616780450002,877.0915654173446
-89.82017304584136,-1038.8562862955241,850.040533719466
-60.35516715698022,-1078.0541775223958,819.2175717497821
-64.88994712771436,-1097.5103628660145,803.517001218561
-50.07591787205621,-1105.5049379757615,788.0672808757324
-15.831094206482337,-1109.7469574217496,776.8208307627988
9.643303268700322,-1110.3281956631472,734.033538466245
12.95172153589656,-1129.8047753310254,722.3751230032683
34.57307031453147,-1149.6688471598357,683.5188367077443
60.565636583338865,-1153.9822467407323,656.4504698342452
74.61549050899136,-1135.1378911249,613.4266033762804
107.6330857122463,-1120.3724003609796,562.8517383612141
173.30484926045085,-1078.3600923862891,559.7691362493819
199.65023733894859,-1032.3810883431142,532.5365950655934
201.40414922527063,-1021.3477589186931,469.7312537920697
181.64510816639734,-994.2916286397497,449.72136254480387
196.5676352271163,-967.5006245761806,430.2305068499437
211.70838155741262,-967.6882523593684,422.6091478741467
176.39968796683885,-940.544426486109,398.4408539103568
214.85114692581058,-855.9008427954502,379.10805422850825
288.74590201546914,-759.7487419251223,379.8911962800753
342.69398826306644,-702.2367475131672,368.7314220452448
388.9880846160514,-636.9280029367827,357.42990725681045
400.2753233775041,-598.4673665318943,341.7711450903214
365.26642635354585,-567.386416360327,325.4434490881188
380.46121764313,-540.5270913104883,313.80644766561466
383.878286672819,-544.5274380140008,302.0970463919891
407.18899930149445,-498.315938674267,298.3659047687029
442.5231857973926,-425.04423019073795,302.5722341472369
509.0668067076933,-355.7759275593603,319.0345326895525
540.6841276072869,-301.74932316336367,331.0998149215074
550.0532801721282,-239.60169884721083,366.3514044041544
570.0009687304024,-181.6512264636752,374.30417114916924
586.5050756374501,-123.56819097245237,393.9785757623654
591.0937985958508,-77.07045729173572,405.6645235630924
613.4225245114286,-54.276026981691004,378.4493175549245
652.8009055079972,26.73797882049426,386.61520498845175
683.4902846537809,142.32179184532944,359.21237119709593
695.1038326033865,207.89872178572708,347.3918208562558
722.7860686370984,250.34848801578525,359.436708763951
756.5682470568443,218.9606032641116,340.4261394054035
744.4642156087962,122.3659455573514,344.4948070951855
765.0145564489403,33.71508109293184,400.04690694579705
818.5282435898091,-28.601000341604937,401.05846542907113
846.9202021077535,-20.729810893628304,440.702992357227
873.1207904840085,49.37853395400061,515.4267767280367
857.152034588774,131.4546761636237,593.4034558182459
856.5758949284416,281.9240005506468,545.7918861180934
832.2281309111675,262.48515038264856,514.0960470701004
799.4666884206126,181.13830920854727,474.6330296278546
725.6229191416029,189.27054600704625,453.8767061126889
710.8910790127109,208.86949162048202,469.28767723942434
693.8607985397665,178.6838522839094,539.7775998939495
714.5997868793116,194.35281161252826,579.2824257009274
773.5730346244641,244.4045622103369,603.5445335563114
758.4863332534557,252.32979661760135,611.140399626784
680.758464919213,87.69396277016106,736.1198778379978
688.9692198661113,-22.241540179368084,995.6386737570936
391.72908179653604,311.1694615388538,1241.2393630852534
340.2691031086049,522.7452799885792,1490.9270749950292
317.53860900511387,533.6113759540721,1388.506778563526
485.1197911621196,375.3391831053419,1144.3051398795717
713.4301723830259,162.29089444407623,885.4930072960695
785.7005195454107,137.3211035368857,753.2225581620636
801.4785885088181,47.473092238430056,671.3454645572137
768.3072201006461,4.642105102150072,612.1234060560947
828.0574916000877,-189.4071879795853,597.9748436010259
806.9106167753515,-301.7248499742522,566.6399840924272
742.3279101426074,-266.2295483167035,585.175365695727
657.2050598318489,-128.50259772705257,767.893215318177
470.0830558855471,68.46945695013079,995.9782392560152
499.43864622475576,71.72388124384985,953.2358144728324
579.999286198651,-108.63240760096467,758.8208001713124
595.2328267043283,-217.92559130793902,665.2261475631333
626.4657145916292,-5.657854619059517,633.5812943257891
622.692764603611,44.596880688104505,625.506161635217
687.5752678029705,-25.580193032279123,622.7896376438438
652.0779267129959,-102.75476334935988,614.6696374399005
624.0948743964556,-91.21443102384607,582.814722662683
586.64885562348,-13.405597222293038,597.6893230613921
444.28627512963146,230.17646189065587,885.1575206619998
488.8723468258784,354.97748976459854,1034.5428867146275
662.9073128948214,153.85070334925794,763.1015688333937
712.1779608734889,-53.4168141006358,560.458464409355
700.7255280855338,-18.543233418139735,556.2449970173302
662.5891614363723,141.188887132711,645.4008249504164
672.348865310784,156.09509873402234,590.5523292867596
629.7685754054647,-194.06219249182953,767.7035481025631
600.4405174040065,-135.52028470476668,798.4632876670424
585.7311110318,61.733109675577296,777.9547551916303
630.4884950518272,204.89055895744218,817.3882008636998
643.9028618335518,236.16117634462333,864.5796474841054
589.9476375724636,183.50609025508203,985.6118042348816
639.1968715106586,159.73548561435354,966.8072175513555
703.9223384132197,196.65635053764538,826.3657824027574
722.2415401793681,307.2680273080002,665.3576909546074
704.180326615103,395.54689929792545,570.5975027149944
683.5484084779207,453.28221156052274,519.0743016218587
663.5497341089975,233.11834316509717,543.0651649645905
589.4143259930762,-148.87448822992562,594.2630765857863
483.6789321531818,-460.3141745652186,719.3180137967604
318.3370467998756,-486.8502495755432,1066.2254694518515
299.0175034287958,-571.677382184538,1081.9189019695818
413.3358486333254,-426.1394054034763,1016.4204901775837
568.0186404123733,-349.95538741568225,1018.4803169277992
527.2738396904142,-296.14598257304993,943.1202296400912
449.4664334915593,-187.60229028261438,898.4179102955649
414.10165550927184,-110.26803240658127,862.3056803291645
386.3072506921324,-33.02728250727823,822.3827708748655
327.8234667292093,-13.442510949202838,797.8932663039876
268.5494027012283,-28.81310131390434,757.8102614042513
254.3182432329083,-98.90808787914324,695.039590481969
288.79076952884014,-154.29122075326438,589.7783646811093
401.94153966951,-213.7274196591089,532.8047804296066
413.55610733532865,-206.07954806177443,532.9526392804883
421.07141582497593,-175.29227615954483,521.187153615149
423.6696527356437,-160.18925932912873,481.9290991317117
445.4273375719538,-180.0186608066975,447.00075968857874
482.4909627650626,-254.0612747472379,420.33314128677995
503.5858320629369,-265.3372966303478,475.632351516573
524.4553440777432,-322.017202612513,644.8940259925664
536.244283215981,-354.81331545430913,880.6585327303412
576.3894908047091,-282.20340279300274,1246.0014377998605
634.4235799177089,-69.19019236946359,1320.7262418868831
599.6951048523197,-23.587769523741546,1198.390887815921
662.9236283542291,-102.90058276781572,1038.6931317014476
672.9923062411732,-88.9125236446697,881.8097923347934
620.3331412867799,-65.99735893500839,802.4513977759991
587.8980079843781,-120.22964009116264,766.8276118756152
459.91444580973126,-100.14316815630211,737.3700499151088
647.9970224286582,-70.89087506946818,712.6164388450695
463.79548571632523,-76.99479434873275,733.4257876033101
532.0940382291609,-73.93533979493508,703.0413036052067
582.3793038397415,-47.24110679997757,703.7041191436424
620.7767178394254,-28.26337230348794,696.3662412750532
733.3187174009474,-52.09923878184702,725.6045642497694
1015.3324529783363,-146.778971412256,769.3942375836806
1176.8238899114376,-333.4879902923017,799.9163832705359
1158.1324917275524,-503.11880203739304,851.2285031075852
1058.5164148817385,-459.72069972926545,857.4385748446208
851.5181025120711,-284.0552074357706,849.8212947336757
605.6573855496016,-173.82592424528255,845.7669030708755
565.5142173932995,-150.7609632239348,794.0672910728945
551.2004609117283,-193.84397322225226,723.35507028394
517.6732115452271,-248.34882452213552,656.317906726558
495.95325620879714,-306.74389317452955,597.3201857922941
484.4212855562297,-360.7144131788124,609.1040263494671
499.698673859065,-360.86737061075905,605.408574793635
499.6170965620268,-372.47378054687385,605.4463042935153
504.07121698031443,-383.9384499293847,625.1747538659992
546.59542249392,-384.23212819872236,629.7369642028624
559.6273956957779,-368.50402532975073,669.1255423615609
568.3439298843133,-360.58694865219013,696.701727909123
592.609096888336,-314.13581600240656,720.4560170904439
631.7427459937901,-287.2489586148175,732.7262622812073
663.0602703267681,-256.46882472607876,740.9400763767444
690.3070875375383,-217.98983342935665,741.2184589028874
721.3523476416514,-187.2780205268874,741.5804581584946
725.6953189927244,-156.28986453070112,749.3894449174795
741.1633942273866,-129.36221849459298,745.6062977673314
760.8112862190453,-75.34887040936509,745.718466550759
757.77559105301,-75.11392779389497,769.2198661112614
737.771818103022,-44.25476589865041,741.3438839970837
722.0304589232818,-51.941590655320624,733.2840470497061
682.7877001830391,-74.99319339427838,717.075657844422
647.7798228752939,-101.84068973604647,712.7173907501543
646.3624173392546,-129.22965538690585,677.4668209837203
626.7410379691332,-160.06485395114544,673.3522660643544
610.5102150071635,-198.77022224714864,657.5415661821315
629.7777528513815,-218.22844702319347,661.820295411787
625.8977326610005,-260.6853512667425,669.7547072649683
622.9446345082164,-268.15375281059283,697.208526866973
653.3903014790984,-283.93488092263925,689.867589849745
656.8083902250005,-287.93624734236465,678.1592082923323
668.9685060647622,-280.1517337724911,694.0127362555002
676.4573019328722,-272.54159167503684,686.2506564423122
684.5732232719636,-272.49876359409177,698.1456460666998
676.7570984994877,-268.60446737672913,694.0912544038995
680.8012930001581,-260.8627818878007,698.0497927426798
684.73637786604,-249.2869634380752,698.0701870669393
688.6439303941713,-241.57892858417503,698.1028179857547
685.3900159585588,-214.36576200843308,709.7357405434069
680.6636313114061,-222.2787598211418,686.1435862399495
677.5463588483326,-214.34026910310862,705.6935854751623
678.036842346775,-202.6308678294831,717.4356176676032
639.4752540368016,-206.20293372354476,716.8696751694005
639.502786374552,-202.33413041150652,716.8574385748447
612.4466560956087,-194.42215231501075,712.50019119679
677.6279361453709,-202.73385916699385,705.6558559752822
650.4902285693892,-187.11894479766283,697.347208271938
615.3997542483927,-206.26309698011045,689.0365211361678
649.9997450709468,-218.13769228023847,689.5953256208797
646.6907659598335,-198.66111261236,701.2537410838564
646.7458306353343,-229.54321812239658,709.2085472612972
650.7900251360047,-221.80051291725516,713.1670856000776
658.0340891129999,-210.3909082102451,697.5389149199779
663.1418476238064,-206.24372237206387,732.923067510312
646.7458306353343,-190.9235059882835,701.228248178532
659.3974496897514,-210.04930327889753,736.8041074169059
666.7496035853222,-202.47383153268447,725.11510046754
650.6809155012161,-217.96637995645813,709.2279218693438
665.6860395751863,-218.18765837467433,697.6796357573688
665.4402879678586,-195.07782983995557,685.8244150652874
647.1006918774506,-198.5591409910622,713.0335027761774
655.2431258380793,-194.6464898818659,724.9162558060093
639.4212090775138,-213.9395206314083,716.8951680747249
658.1982634232894,-245.1071466810787,709.4318651119395
641.3668276118757,-272.37639764853446,673.9508394813724
653.362769141348,-268.4943380257275,685.890696619131
665.4147950625342,-256.874671778844,697.806080567778
677.4923138890448,-241.3872219361352,709.7082082056564
673.3114774158353,-229.85321185114188,697.8336129055285
670.3573595468381,-218.01226718604215,721.2962632499376
678.2550616163522,-210.30015346729007,725.3139451290706
665.6319946158984,-225.9252649987509,697.7051286626933
673.3930547128734,-218.24782163124007,697.7948636894353
653.7992076805026,-245.21421688344134,693.6680721755137
654.2081138819067,-225.80187933698056,701.457684326452
650.5442735286771,-198.69068438253638,701.3118649079961
649.808038422907,-167.98091091249307,673.7244624820913
640.0738274538197,-140.39962678386607,720.5814421846401
635.3219499013426,-190.80012032651317,704.9818235585037
661.3155358863629,-253.0446176828989,689.8828855929396
669.1846859019136,-210.58261485828496,685.932504983863
654.6435327048483,-202.52073847848146,709.2350598828347
646.7458306353343,-210.23285219723354,705.2183977199146
635.3494822390929,-225.551029148588,712.9488663305003
665.9317911825141,-221.98814070044307,705.5457266242805
646.4470537849318,-252.78968862965436,705.3570791248796
669.4304375092413,-233.69244339300374,697.7877256759444
646.3644567716805,-225.77638643165608,697.4155292582076
643.0289650390297,-229.47897600097897,713.0773505733355
643.2196519708566,-221.70669902566118,716.9777650879761
650.8450898115055,-233.37327221834164,717.1317422361358
657.9800441537121,-237.43786104327168,701.5535376504719
642.374307230298,-225.781485012721,693.4314980141028
665.9593235202644,-237.4286835973549,709.5226198548944
661.5327354397273,-241.40455711175585,693.7710635130244
642.7567008101646,-248.85664319619852,709.2136458423621
646.664253338296,-221.8392621333483,705.2561272197948
653.6075010324628,-233.67612793359612,685.7775081194904
650.3546063130631,-225.7723075668042,701.4005802185252
661.5327354397273,-222.09521090280577,689.7809139716418
654.1805815441563,-229.6706826490188,701.4709406372208
646.7458306353343,-229.54321812239658,709.2085472612972
654.4528457730214,-229.60236166274927,709.3237751933638
658.3614180173658,-221.89432680884912,709.3564061121791
653.962362274579,-222.00139701121182,693.5926131757533
661.451158142689,-233.70162083892055,689.8196631877349
665.7676168722245,-225.89161436372262,701.6310360826583
662.1323285729582,-214.22096230619022,705.4621098948163
665.2771333737821,-218.29064971218511,685.8998740650478
653.498391397674,-229.84199497279909,681.8383443887567
661.7784870470549,-225.89569322857452,697.6470048385536
645.8739732732381,-218.1764414963316,681.684367240597
649.6459035450434,-249.12176941157279,685.7703701059995
654.6720847588117,-237.27164730055625,717.2021026548313
654.5894877455605,-229.56769131150804,713.2507023295418
649.7274808420817,-237.515359475458,685.7316208899065
653.9358496530416,-245.1795465322001,697.5949993116917
657.9525118159617,-241.30666435530995,701.5667939612407
650.4637159478518,-229.60644052760117,705.339743949259
654.6710650425988,-217.96230109160624,713.2119531134487
631.6326166427884,-225.48678702717035,716.8176696425386
654.3712684759831,-221.899425389914,705.3723748680743
661.8049996685924,-222.02688991653625,697.6347682439978
661.9141093033809,-206.55167666838324,697.5837824333489
658.2523083825772,-218.06019384805214,705.4172423814452
658.9885434883472,-229.46062110914534,729.0144952659675
651.0633090810828,-241.04153813993568,725.0100696976032
669.8944083861462,-225.85286514762942,709.541994462941
661.9967063166322,-233.56497886638152,705.525332300021
649.8641228146207,-237.48068912421675,689.6585480260844
661.5052031019768,-225.964014214844,689.7941702824105
673.366542091336,-241.42597115222836,701.7972498253737
650.8185771899681,-237.24105581416694,717.1439788306915
646.0106152457772,-237.45111735404038,689.6004242019446
658.0065567752496,-233.5690577312334,701.5413010559162
653.962362274579,-241.31074322016184,697.5817430009229
657.8974471404608,-229.73492477043644,697.6021373251825
646.5551437035074,-237.31447538150135,705.3071130304437
657.9800441537121,-237.43786104327168,701.5535376504719
646.664253338296,-241.1486083422984,709.2462767611775
649.7815258013695,-229.7777528513815,685.707147700795
657.6516955331333,-225.9344424446677,689.7360464582707
646.9915822426619,-233.34268073195233,717.073618411996
649.6448838288305,-229.81140348640977,681.7802205646169
650.2995416375624,-233.50991419088072,701.4250534076367
650.2179643405241,-225.80595820183245,697.4736530823473
662.4871898150745,-241.164923801706,721.2564943176315
650.8185771899681,-237.24105581416694,717.1439788306915
661.6693774122663,-241.37090647672753,697.6979906492024
653.8807849775408,-233.60780694732657,693.6303426756335
646.2553471368919,-241.25159967980915,697.4665150688564
650.0823420841981,-245.14997476202376,697.5368754875518
654.0990042471182,-241.27709258513357,701.5086701371009
665.8226815477253,-237.46335394859614,705.5956927187165
657.6251829115957,-229.80324575670593,689.7493027690394
649.7815258013695,-229.7777528513815,685.707147700795
658.2523083825772,-237.36954005700215,709.406372206615
642.1295753391831,-241.2903488959023,689.5555566885736
646.9915822426619,-233.34268073195233,717.073618411996
642.6200588376255,-248.8902938312268,705.2867187061842
653.8807849775408,-233.60780694732657,693.6303426756335
650.2454966782745,-221.93715488979421,697.4614164877916
661.9691739788817,-218.12443596946972,701.5484390694071
650.4637159478518,-229.60644052760117,705.339743949259
646.6102083790082,-229.57686875742485,705.2816201251193
654.3172235166954,-229.63601229777754,705.3968480571858
653.8532526397904,-237.47661025936486,693.6425792701892
665.3046657115325,-233.73119260909692,689.8767672956617
661.8060193848053,-241.3362361254863,701.6238980691675
662.8145187194405,-233.35899619135995,729.084855684663
669.485502184742,-225.95483676892727,697.763252486833
654.8077070151378,-237.23697694931502,721.1290297910092
661.8600643440932,-233.5986295014098,701.599424880056
665.604462278148,-229.79406831078913,697.717365257249
666.2591200868799,-233.49155929904708,717.3632178164818
646.3644567716805,-245.08573264060615,701.4056787995902
653.6350333702131,-229.80732462155783,685.7642518087217
662.05075127592,-225.827372242305,705.4998393946966
662.187393248459,-225.79270189106373,709.4267665308745
650.1639193812363,-233.543564825909,697.4991459876718
669.0490636455876,-229.92663141847626,685.9957273890677
658.0616214507503,-225.83145110715688,701.5158081505919
653.7166106672514,-218.20091468544305,685.7265223088416
650.9266671085437,-221.76686228222687,717.0940127362555
658.4154629766537,-214.15672018477258,709.3309132068546
662.05075127592,-206.51802603335497,701.510709569527
662.3230155047851,-206.44970504708542,709.3635441256699
662.2414382077469,-218.0550952669872,709.4012736255501
666.0949457765905,-218.08568675337656,709.4593974496898
665.7676168722245,-225.89161436372262,701.6310360826583
665.7676168722245,-206.58226815477255,697.6419062574886
658.4705276521545,-225.7294794858591,713.2955698429129
647.1822691744887,-225.57142347284753,720.9750526428496
654.0714719093677,-245.14589589717184,701.5209067316567
664.9232918478788,-229.9653806345694,678.084769008785
673.3930547128734,-237.5571678401901,701.785013230818
665.5769299403977,-233.66287162282742,697.7306215680177
650.2454966782745,-221.93715488979421,697.4614164877916
642.8658104449532,-233.38142994804548,709.1626600317132
658.1972437070765,-225.7978004721286,705.4427352867698
650.8175574737552,-217.93170960521687,713.1548490055219
662.2965028832476,-210.31850835912368,709.3757807202256
649.9171480576956,-210.43373629119017,685.6439252955903
653.6350333702131,-210.4979784126078,681.775121983552
657.1336796969405,-222.20228110516848,674.017121035216
645.4375347340836,-222.14721642966762,669.9178618590447
646.8274079323725,-217.9368081862818,709.1697980452041
661.8049996685924,-222.02688991653625,697.6347682439978
665.7676168722245,-225.89161436372262,701.6310360826583
662.4056125180364,-214.1526413199207,713.3149444509594
661.6143127367654,-229.79814717564108,693.7333340131443
647.0466469181628,-225.6060938240888,717.0481255066716
658.3614180173658,-221.89432680884912,709.3564061121791
665.1680237389935,-214.4565167513881,681.9607103343141
666.2591200868799,-214.18221309009706,713.3730682750992
661.4786904804394,-229.8328175268823,689.8064068769662
666.3406973839182,-202.5758031539823,713.3353387752189
669.9484533454341,-218.11525852355294,709.5175212738295
666.0949457765905,-218.08568675337656,709.4593974496898
654.1255168686556,-218.09894306414526,697.5062840011626
653.8257203020399,-202.726721153503,685.6755364981926
646.9915822426619,-214.03333452300225,713.0844885868263
653.1710624933082,-218.33857637419507,670.0208531965555
661.9416416411314,-202.68287335634497,697.5715458387931
662.4596574773241,-206.41503469584416,713.2904712618479
662.187393248459,-206.4833556821137,705.436616989492
650.1363870434859,-218.1030219289972,693.5222527570578
658.442995314404,-210.28791687273434,709.3186766122989
661.9416416411314,-202.68287335634497,697.5715458387931
669.7027017381064,-195.00542998883412,697.6612808655352
661.6683576960532,-202.75119434261447,689.7176915664371
669.7302340758567,-210.4459728857459,701.6391938123621
669.212218239664,-206.7138115462467,685.9202683893074
658.4154629766537,-214.15672018477258,709.3309132068546
665.7951492099749,-202.71346484273428,697.62864994672
665.9307714663009,-202.67879449149305,701.5555770828979
658.6601948677684,-198.64785630159128,713.2068545323838
673.692851279489,-214.31069733293225,705.6354616510226
670.2757822497999,-210.30933091320688,717.3448629246482
661.9141093033809,-206.55167666838324,697.5837824333489
649.9171480576956,-191.12439008224013,681.6537757542077
662.0772638974573,-202.64922272131668,701.4974532587581
662.2139058699966,-202.61455237007542,705.4243803949362
666.4222746809564,-190.97041293408046,713.2976092753387
654.0979845309051,-202.65840016723348,693.5293907705486
665.8216618315124,-198.84466153069602,697.6164133521642
665.7676168722245,-206.58226815477255,697.6419062574886
642.9463680257785,-202.46567380298066,705.1347809904504
701.6759035960293,-206.54147950625344,733.5012466030705
666.3396776677051,-183.26645694503222,709.3451892338363
646.7458306353343,-190.9235059882835,701.228248178532
677.709513442409,-210.43679543982913,709.6072563005716
662.5687671121128,-210.25018737285419,717.2296349925816
670.0850953179731,-198.7712419633616,709.454298868625
658.2247760448269,-202.61965095114033,701.4403491508314
649.8090581391199,-225.9089495393432,685.6938913900262
662.4045928018234,-194.84329511097064,709.3258146257897
650.3270739753127,-210.3317646698924,697.4226672716984
669.8658563321828,-171.79261011660455,697.5858218657748
657.4875212228437,-191.2182039738341,677.8430962663091
669.2397505774144,-202.84500823420845,685.9070120785386
669.5660597655674,-195.0390806238624,693.7353734455702
673.8019609142776,-198.83548408477924,705.5854955565867
662.6228120714005,-202.51258074877765,717.2041420872572
669.9759856831845,-214.24645521151464,709.5042649630609
661.8325320063427,-198.84874039554794,693.6323821080593
665.9858361418018,-194.94118786741652,701.5300841775735
662.2954831670347,-191.00916215017364,705.386650895056
662.3505478425355,-202.58090173504715,709.3513075311142
665.8767265070132,-191.1070549066195,697.5909204468397
662.3505478425355,-183.2715555260971,705.3611579897315
674.1833347779315,-183.29194985035667,713.3873443020808
658.5786175707301,-210.25426623770608,713.2445840322639
669.8393437106454,-194.9707596375929,701.5882080017133
673.1473031055458,-195.13799309652126,685.939642997354
669.8118113728949,-198.83956294963116,701.600444596269
654.5884680293475,-190.94899889360795,705.2704032467765
677.4097168757935,-195.06457352918684,697.7775285138147
665.8491941692628,-194.97585821865778,697.6041767576085
650.6268705419283,-206.3946403715846,705.2632652332857
670.0850953179731,-198.7712419633616,709.454298868625
673.2564127403344,-198.97212605731826,689.8788067280876
658.4154629766537,-194.84737397582256,705.341783381685
672.9831287952563,-199.0404470435878,682.0259721719447
670.2207175742991,-198.73759132833334,713.38020628859
657.8423824649601,-198.85281926039985,689.6473311477417
669.4029051714909,-198.94255428714192,689.820682903948
661.9956866004192,-194.9462864484814,697.5460529334687
665.9307714663009,-183.369448282543,697.5654275415152
677.9542453335238,-175.61858534769775,709.4940678009311
670.411404506126,-190.96531435301557,717.2816405194435
669.5935921033177,-191.17129702803712,693.7221171348015
673.7468962387768,-187.2637444999057,701.6208389205285
666.4222746809564,-190.97041293408046,713.2976092753387
673.8560058735654,-191.0978774607027,705.5600026512623
681.3448017416754,-183.4887550794614,697.7969031218613
666.7220712475719,-187.0332886357727,721.1382072369261
658.2788210041147,-194.8820443270638,701.4148562455069
673.7468962387768,-187.2637444999057,701.6208389205285
678.445748548179,-183.21954999923523,725.2252298185416
662.8134990032274,-175.43095756450984,717.1154267767281
662.513702436612,-198.67742807176765,713.2649783565234
669.5385274278169,-179.5985377269506,689.7574604987433
669.8933886699333,-187.23417272972935,701.5627150963887
670.5205141409147,-194.80046703002557,721.2208042501773
677.300607241005,-191.23044056838984,693.8383647830809
669.8658563321828,-191.10195632555462,701.5759714071575
669.6486567788185,-202.74303661291066,697.6867737708596
684.9525577031912,-179.71784452386902,689.9889360790893
662.6228120714005,-183.2032345398276,713.2139925458745
673.9375831706037,-179.49146752458793,705.522273151382
661.8590446278802,-175.67059087455962,689.629995972121
662.377060464073,-179.40275221405884,705.3489213951758
672.9831287952563,-179.73110083463774,678.0358226305619
669.6751694003559,-179.56488709192234,693.6843876349212
661.7774673308419,-187.27700081067442,689.6677254720012
662.1323285729582,-194.91161609724017,701.4729800696467
665.194536360531,-191.2783672303998,677.9583241983757
663.3865795149211,-190.73485848888257,736.799008835841
658.6601948677684,-198.64785630159128,713.2068545323838
650.4076315561381,-179.41600852482756,693.3958079466486
669.5109950900666,-164.1579948300388,685.7805672681293
669.7567466973942,-167.95847715580757,693.6466581350411
662.2679508292842,-175.56759953704886,701.409757664442
657.8964274242479,-191.11623235253631,689.6228579586301
673.7744285765273,-202.70428739681748,705.5977321511424
658.3328659634025,-167.83509149403721,697.3992137987999
666.3131650461677,-187.13526025707048,709.358445544605
669.8933886699333,-187.23417272972935,701.5627150963887
662.3505478425355,-183.2715555260971,705.3611579897315
677.7910907394473,-179.52205901097727,705.5793772593088
654.0979845309051,-183.34905395828343,689.539241229166
658.5510852329797,-194.81372334079427,709.26769080165
661.7774673308419,-187.27700081067442,689.6677254720012
669.7842790351446,-183.39902005271935,697.6235513656551
674.1282701024306,-171.72021026548313,709.4237073822356
666.6129616127832,-183.1981359587627,717.1990435061923
670.1116079395106,-175.59309244237332,705.4519127326865
666.5578969372824,-171.62639637388915,713.2343868701341
672.9831287952563,-179.73110083463774,678.0358226305619
670.3022948713374,-167.82183518326852,709.3523272473271
665.9583038040514,-179.50064497050474,697.5531909469595
669.7027017381064,-175.69608377988408,693.6721510403655
669.8118113728949,-179.5302167406811,697.6113147710993
677.4637618350814,-187.32696690511034,697.7520356084902
672.8199742011799,-183.63457449791724,674.1221518051527
662.6228120714005,-183.2032345398276,713.2139925458745
670.0565432640097,-183.33069906644982,705.476385921798
673.5837416447004,-191.16619844697223,697.7071680951192
653.1975751148457,-195.16042685320676,666.0184670606171
658.6601948677684,-179.33851009264123,709.2177247072141
662.650344409151,-179.3344312277893,713.2017559513188
670.2482499120496,-175.55944180734502,709.3778201526516
677.3821845380431,-179.62403063227504,693.7996155669878
669.7302340758567,-191.13662667679586,697.6490442709794
665.5493976026473,-179.6036363080155,685.7734292546385
678.3366389133905,-179.38439732222525,721.2860660878079
669.9749659669715,-175.62776279361458,701.5249855965085
669.4569501307786,-171.89560145411536,685.8060601734538
658.169711369326,-191.0468916500538,697.4756925147732
672.9280641197555,-168.15936124976423,674.0711659945039
673.8284735358151,-175.65733456379093,701.5831094206484
677.2180102277537,-164.21815808660452,685.8968149164089
670.5205141409147,-175.4911208210755,717.2306547087945
665.603442561935,-171.866029683939,685.747936349314
681.8903499156186,-183.35211310692236,713.5035919503604
673.5286769691995,-179.5944588620987,693.742511459061
673.4470996721614,-171.89152258926345,689.7900914175585
665.8491941692628,-194.97585821865778,697.6041767576085
681.453911376464,-187.32288804025842,701.7360668525951
673.7468962387768,-187.2637444999057,701.6208389205285
674.1833347779315,-183.29194985035667,713.3873443020808
669.5120148062795,-183.46734103898885,689.770716809512
654.2336067872312,-183.3143836070422,693.4661683653441
673.0647060922946,-187.43403710747302,681.9882426720644
670.2757822497999,-190.99998470425683,713.3547133832654
673.8284735358151,-194.96668077274097,705.572239245818
662.049731559707,-187.2086798244049,697.5205600281442
658.0881340722877,-202.6533015861686,697.5134220146534
670.4929818031643,-179.3599241331138,717.2439110195634
669.5660597655674,-175.72973441491234,689.7452239041876
673.6653189417386,-198.87015443602047,701.6585684204086
669.8658563321828,-191.10195632555462,701.5759714071575
676.973278336639,-179.72702196978585,682.0208735908798
685.198309310519,-183.5183268496378,697.855026946001
673.3379900373726,-187.3657161212035,689.8410772282075
673.7468962387768,-187.2637444999057,701.6208389205285
666.6129616127832,-183.1981359587627,717.1990435061923
674.0742251431427,-179.45781688955967,709.448180571347
665.7400845344741,-191.14070554164778,693.6650130268747
658.1146466938252,-179.47515206518028,693.5110358787151
654.015387517654,-175.6450979692352,685.5878409038766
673.6653189417386,-179.55978851085746,697.668418879026
674.1007377646802,-175.5890135775214,709.4359439767913
678.2815742378897,-167.8126577373517,717.3214094517497
662.4045928018234,-194.84329511097064,709.3258146257897
662.1323285729582,-194.91161609724017,701.4729800696467
678.3917035888913,-190.95715662331176,725.250722723866
666.258100370667,-194.872866881147,709.3839384499295
669.8393437106454,-194.9707596375929,701.5882080017133
665.7951492099749,-202.71346484273428,697.62864994672
673.7468962387768,-187.2637444999057,701.6208389205285
662.1598609107086,-191.0428127852019,701.459723758878
662.1863735322461,-187.17400947316364,701.4474871643223
665.5218652648969,-183.47243962005376,685.7866855654072
665.9032391285506,-187.23825159458124,697.578683852284
673.3379900373726,-187.3657161212035,689.8410772282075
670.0024983047218,-171.75895948157628,701.5127490019528
665.794129493762,-183.40411863378424,693.6395201215503
673.691831563276,-175.6909851988192,697.6561822844703
674.29244441272,-187.12710252736667,717.3265080328146
670.0300306424723,-187.1995023784881,705.4896422325668
669.9749659669715,-194.93710900256463,705.5151351378912
670.2207175742991,-179.4282451193833,709.3910764634204
677.8726680364855,-187.22499528381255,709.5317973008113
653.9888748961165,-179.51390128127343,685.6000774984323
661.8590446278802,-194.97993708350967,693.6191257972907
650.9531797300813,-198.58871276123855,713.0916266003172
654.8342196366752,-214.05882742832674,717.1266436550709
673.8560058735654,-191.0978774607027,705.5600026512623
669.5935921033177,-191.17129702803712,693.7221171348015
669.8383239944325,-175.66141342864285,697.5980584603305
674.29244441272,-187.12710252736667,717.3265080328146
673.6102542662378,-187.29739513493396,697.6939117843505
677.0273232959269,-191.29876155465934,685.9845105107249
674.4015540475086,-190.96123548816365,721.2656717635483
666.06741343884,-183.33477793130174,701.4923546776932
665.8216618315124,-198.84466153069602,697.6164133521642
681.8352852401177,-171.77935380583585,709.5389353143021
670.1116079395106,-194.90243865132337,709.4410425578562
677.6544487669083,-179.55570964600554,701.6534698393438
669.5660597655674,-195.0390806238624,693.7353734455702
661.9416416411314,-202.68287335634497,697.5715458387931
673.1738157270833,-191.269189784483,685.9274064027982
669.9209210076837,-183.36536941769108,701.550478501833
670.0850953179731,-198.7712419633616,709.454298868625
665.8491941692628,-194.97585821865778,697.6041767576085
670.0840756017601,-179.46189575441156,705.4641493272424
665.7400845344741,-191.14070554164778,693.6650130268747
665.7951492099749,-202.71346484273428,697.62864994672
673.8019609142776,-198.83548408477924,705.5854955565867
677.4637618350814,-187.32696690511034,697.7520356084902
666.06741343884,-202.64514385646478,705.482504219076
662.1863735322461,-187.17400947316364,701.4474871643223
666.2856327084173,-191.00406356910875,709.3706821391607
674.0201801838549,-206.50476972258622,713.4638230180542
664.7856301591268,-191.3803388516976,666.1785625060546
681.2632244446371,-195.0941452993632,697.8346326217414
666.258100370667,-194.872866881147,709.3839384499295
658.1972437070765,-206.4884542631786,701.4525857453871
674.2649120749696,-190.99488612319192,717.3397643435833
669.6751694003559,-198.8742333008724,697.6745371763039
673.6653189417386,-198.87015443602047,701.6585684204086
669.4844824685291,-206.6454905599772,693.7731029454503
661.5327354397273,-202.78586469385573,685.7917841464721
658.2247760448269,-202.61965095114033,701.4403491508314
665.2771333737821,-198.98130350323507,681.9107442398781
665.6585072374359,-202.74711547776255,693.702742526755
654.9157969337134,-202.45241749221194,717.0878944389777
669.8118113728949,-179.5302167406811,697.6113147710993
666.6394742343207,-179.32933264672445,717.1857871954236
661.6683576960532,-202.75119434261447,689.7176915664371
661.7499349930915,-191.1458041227127,689.679962066557
666.394742343206,-194.83921624611872,713.3098458698945
669.6486567788185,-202.74303661291066,697.6867737708596
661.3960934671882,-202.820535045097,681.8648570102941
658.9875237721343,-190.84192869124524,721.0352158994153
661.3685611294377,-206.68933835713526,681.8781133210629
661.6683576960532,-202.75119434261447,689.7176915664371
673.5837416447004,-191.16619844697223,697.7071680951192
666.3406973839182,-202.5758031539823,713.3353387752189
657.9790244374991,-218.12851483432163,697.5644078253023
665.1680237389935,-214.4565167513881,681.9607103343141
673.3930547128734,-198.93847542229,693.8057338642657
669.9759856831845,-214.24645521151464,709.5042649630609
658.2247760448269,-221.92899716009038,705.4294789760011
677.0558753498901,-206.73930445157117,689.9624234575518
654.889284312176,-206.3212208042502,717.1011507497464
674.1833347779315,-202.60129605930672,717.3774938434634
662.3230155047851,-206.44970504708542,709.3635441256699
662.4596574773241,-206.41503469584416,713.2904712618479
666.204055411379,-202.61047350522352,709.408411639041
653.6350333702131,-210.4979784126078,681.775121983552
669.8668760483957,-210.41232225071764,705.5651012323272
665.9307714663009,-202.67879449149305,701.5555770828979
665.9583038040514,-198.80999117945478,701.5433404883422
665.7135719129367,-214.3188550626361,697.6673991628131
662.7054090846518,-229.52486323056294,725.1456919539294
658.5245726114423,-217.9918728617826,713.2700769375883
662.2965028832476,-210.31850835912368,709.3757807202256
654.3437361382328,-206.45786277678923,701.3944619212474
662.5147221528249,-217.9867742807177,717.2541081816931
661.6958900338037,-218.19275695573927,693.695604513264
650.5177609071396,-221.8688339035247,705.3142510439345
666.3406973839182,-202.5758031539823,713.3353387752189
665.5218652648969,-202.7817858290038,689.7758153905769
665.467820305609,-210.51939245308034,689.8013082959013
661.7509547093044,-210.45515033166274,693.6701116079396
665.9858361418018,-214.2505340763666,705.5202337189561
670.0300306424723,-206.50884858743814,709.4787720577364
669.5395471440299,-198.90788393590066,693.747610040126
654.4528457730214,-229.60236166274927,709.3237751933638
666.3682297216685,-218.01736576710704,717.3122320058329
658.3338856796155,-225.76313012088735,709.3686427067348
673.5286769691995,-198.90380507104874,697.7316412842307
669.1306409426257,-218.3202214823615,685.9579978891876
658.1972437070765,-206.4884542631786,701.4525857453871
650.1628996650232,-214.2342186169589,693.5089964462891
661.5052031019768,-206.654668005894,685.8040207410278
673.2564127403344,-218.28147226626834,693.8689562694702
669.7577664136072,-225.88651578265774,705.6160870429761
654.1255168686556,-218.09894306414526,697.5062840011626
665.6860395751863,-218.18765837467433,697.6796357573688
661.6418450745158,-225.93036357981575,693.7200777023755
673.4481193883743,-229.8195612161136,701.7595203254936
666.6955586260344,-229.52078436571105,729.1297231980341
674.156822156394,-206.47009937134496,717.3897304380192
669.7302340758567,-210.4459728857459,701.6391938123621
678.036842346775,-202.6308678294831,717.4356176676032
666.0133684795522,-210.38173076432832,705.5069774081874
666.6680262882841,-214.08024146879927,725.1528299674202
646.2828794746423,-218.07345015882083,693.464128932918
651.1448863781211,-210.12578199487086,720.9821906563404
653.7706556265392,-210.46432777757954,685.701029403517
654.5894877455605,-210.25834510255797,709.2605527881591
654.5068907323093,-202.55540882972272,705.3091524628696
662.0772638974573,-202.64922272131668,701.4974532587581
666.5589166534954,-210.24508879178924,721.2136662366864
658.169711369326,-210.35725757521683,701.4648223399429
677.1649849846789,-210.57445712858114,693.9015871882856
662.2689705454973,-233.49665788011202,713.3781668561641
661.5052031019768,-225.964014214844,689.7941702824105
665.2230884144943,-226.02825633626165,685.9253669703722
646.3104118123927,-233.5139930557326,697.4410221635319
666.1224781143409,-214.21688344133833,709.4461411389211
658.1972437070765,-225.7978004721286,705.4427352867698
673.0116808492197,-233.79033614944964,689.9930149439411
649.7815258013695,-229.7777528513815,685.707147700795
658.0616214507503,-225.83145110715688,701.5158081505919
656.9154604273632,-214.53299546736145,666.1387935737484
658.0606017345373,-206.52210489820686,697.5256586092091
654.8342196366752,-214.05882742832674,717.1266436550709
662.1047962352078,-198.78041940927844,701.4852166642024
658.306353341865,-210.32258722397557,705.3917494761209
658.5786175707301,-210.25426623770608,713.2445840322639
658.2788210041147,-214.19139053601384,705.4039860706766
661.3960934671882,-222.12988125404704,685.8550065516768
665.7951492099749,-222.02281105168433,701.6187994881026
669.4304375092413,-214.38309718405372,693.7985958507749
666.5854292750329,-206.376285479751,721.2014296421306
650.2730290160249,-237.37871750291896,701.4383097184054
658.2247760448269,-241.23834336904045,709.4196285173837
657.5160732768071,-225.96809307969596,685.8101390383057
654.4803781107719,-225.73355835071104,709.311538598808
661.8600643440932,-214.28928329245971,697.6092753386733
654.0439395716172,-229.70535300026006,697.5440135010427
661.5602677774776,-218.22640759076754,689.768677377086
654.1805815441563,-229.6706826490188,701.4709406372208
657.7332728301715,-214.32803250855292,689.6983169583906
662.2965028832476,-229.62785456807373,713.3659302616082
650.7084478389664,-214.0975766444199,709.2156852747881
657.8158698434227,-222.03096878138814,693.64971728368
666.1224781143409,-214.21688344133833,709.4461411389211
658.2247760448269,-241.23834336904045,709.4196285173837
654.2621588411946,-237.3736189218541,705.4223409625102
665.9317911825141,-221.98814070044307,705.5457266242805
649.8355707606573,-222.04014622730497,685.6816547954705
653.5259237354245,-225.97319166076085,681.825088077988
673.3930547128734,-218.24782163124007,697.7948636894353
662.0782836136705,-221.95856893026675,705.4876028001408
654.4803781107719,-225.73355835071104,709.311538598808
638.6299092962429,-229.58604620334162,697.3125379206967
658.3614180173658,-221.89432680884912,709.3564061121791
650.408651272351,-237.34404715167773,705.3642171383705
662.187393248459,-206.4833556821137,705.436616989492
646.3919891094309,-221.90758311961784,697.4032926636518
657.6516955331333,-225.9344424446677,689.7360464582707
654.3988008137336,-218.03062207787576,705.3591185573056
658.3338856796155,-245.07247632983743,713.3587922481174
646.7458306353343,-229.54321812239658,709.2085472612972
654.426333151484,-233.47116497478754,709.3360117879195
662.1058159514208,-218.08976561822845,705.4753662055851
665.6319946158984,-225.9252649987509,697.7051286626933
665.7135719129367,-214.3188550626361,697.6673991628131
665.8777462232262,-229.7257473245196,705.570199813392
662.4056125180364,-233.46198752887076,717.3050939923421
668.9124216730485,-229.96028205350453,682.0688002528897
661.5052031019768,-225.964014214844,689.7941702824105
661.31451617015,-233.7352714739488,685.8927360515569
665.4953526433594,-225.95993534999212,693.7782015265152
665.7411042506872,-229.76041767576086,701.644292393427
661.8049996685924,-222.02688991653625,697.6347682439978
666.0409008173026,-225.8232933774531,709.4848903550143
642.6200588376255,-229.58094762227674,701.2975888810145
658.3614180173658,-221.89432680884912,709.3564061121791
654.0174269500799,-233.57313659608536,697.5572698118115
651.0357767433323,-206.29164903407383,717.0430269256067
646.4460340687187,-214.16997649554133,697.3777997583273
657.4334762635559,-218.26515680686066,681.8577189968033
657.4610086013064,-233.70569970377247,685.8346122274172
658.0881340722877,-221.96264779511864,701.503571556036
657.5425858983446,-222.09928976765767,685.796882727537
653.498391397674,-229.84199497279909,681.8383443887567
661.8875966818435,-229.72982618937155,701.5861685692872
649.9181677739086,-229.74308250014025,689.63305512076
661.5052031019768,-225.964014214844,689.7941702824105
650.0813223679851,-225.8406285530737,693.5467259461693
665.9042588447636,-225.85694401248136,705.5579632188362
650.4637159478518,-229.60644052760117,705.339743949259
661.8049996685924,-222.02688991653625,697.6347682439978
650.1363870434859,-237.41236813794723,697.5113825822275
662.5687671121128,-229.5595335818042,721.2187648177512
657.5160732768071,-225.96809307969596,685.8101390383057
665.3597303870333,-245.30293219397046,693.8414239317199
662.3505478425355,-221.89024794399722,713.3404373562838
