acc_x[mg],acc_y[mg],acc_z[mg]
800.329368336792,-283.070161574034,484.06132573304853
788.4976011176091,-302.3580937425115,480.0242692458689
791.4231669326427,-298.7584955106994,452.5837059546328
803.3660832190402,-321.923388720919,468.53920553909853
802.5758031539824,-337.5699142928524,448.9575951012834
798.6947632473883,-341.40812611850123,448.9117078716993
806.5108880198642,-345.302422335864,452.9671192507126
824.7423941916966,-357.29632443291035,425.8079976342584
813.3725584169927,-368.7456980722265,433.5252099340754
818.4803169277991,-345.28916602509526,464.9202326992399
818.9157357507407,-322.00802516659616,472.6976082556225
804.6478664987535,-313.87782780052316,503.85299771073716
816.31647912386,-298.49234957911216,503.9763833725074
809.9452922251738,-282.6500384942871,539.1484349905421
798.1400376275283,-278.76084085798925,531.1089923674242
786.6345795964984,-290.2438651323337,534.9002972472762
775.4829630913717,-290.0511387680809,546.506707183391
775.101589227718,-305.59467300250344,538.7038387216837
771.4122559691639,-320.9719934942106,546.549535264336
770.9207527545085,-332.6803750516232,534.8085227881081
792.0513121198371,-325.6341360199457,476.231944649804
791.5873412429321,-314.1653877725829,460.4875263214248
779.862644226112,-298.66978020017035,452.41035419842666
787.5686396475862,-260.11023132262295,444.54630276394084
755.7585923837397,-225.36136193297406,408.63087802664523
741.8170323199055,-190.11589074760496,443.6254990236218
727.0576598532629,-174.38574844620743,459.0497264611259
716.478104143617,-170.18757679737732,486.349568914971
698.0569307561707,-185.27427816838576,513.5963861257413
678.081709860146,-227.78420765500965,501.6667261501125
674.0110027379382,-258.70404266492636,501.70955423105755
645.4548699097041,-270.4787057761825,458.1513564774924
634.3848307016158,-258.68058919202787,469.719017197514
606.6199976546527,-235.49938052240066,441.7533000565943
572.0740517913865,-215.88819831440912,441.16900266655796
548.5441001769209,-196.50237338948574,425.0534076366548
531.766709324795,-177.41634503117785,381.56659001799807
522.0681884231619,-150.82316591292647,318.5379308938323
520.8965344944503,-182.01220600306937,291.15345199431
535.8741262306701,-205.4116339422739,283.6065323020604
504.8563984643074,-232.25464353270488,283.23331616811043
476.6826592159403,-267.10446482743856,255.45624652659168
445.61088649028983,-301.6850810419461,255.1075035817532
422.46230873947786,-305.3754340167132,254.77303666389648
407.83957824537435,-328.2293137819745,282.1034706041309
380.457138778278,-347.43260950477486,273.9090311166403
360.9989140022332,-355.05600791299787,269.71901719751395
338.1501328180368,-316.18952445534416,269.2448491584792
318.828550014531,-304.4689063033758,264.99161283414827
283.2475921950921,-335.322459759449,244.9399132221503
257.40084534474056,-374.4459117027732,174.0410843662209
244.61360403399735,-374.6651506885634,138.52844753305158
177.38677326100148,-405.4850535096083,94.45498717706863
125.07431181902079,-385.34871745193317,136.77453564672953
29.937950268440296,-388.1651736321782,170.68009972824564
-94.22646877374028,-386.43165607011576,255.15644995997616
-251.5701080389328,-461.2900429810385,398.26240357308563
-379.88711741522343,-521.3910968577446,486.8094609270241
-455.400162134878,-628.5387976526133,552.7585872851586
-474.7462181274951,-736.5440797825966,572.4564453712533
-444.62686034476604,-798.7498279228892,565.2684657859718
-482.9416773311988,-864.0493950533568,584.5380430626158
-532.5743245654735,-817.2036322291507,587.5604819178823
-586.0319273146284,-824.3875329495802,602.4830089786013
-651.5925417956183,-928.1660913767699,621.4742037291022
-690.9433904544366,-1005.3117017534021,613.2950599848064
-683.1547980197112,-993.765455073853,613.3735781332056
-679.657171409197,-947.5406994233505,593.6461482769346
-763.5339285076964,-935.0746687196954,615.8953363278999
-805.4310085503205,-903.7296120489669,623.0119357782729
-891.0881901566795,-906.1616352169192,708.0787016973177
-1023.9378380996569,-985.7127561399664,780.924168803822
-1080.674848189749,-1046.7896784324923,823.4514334660665
-1133.9958089663646,-1092.5545420709418,850.2801670295158
-1175.651216266513,-1026.3953541729338,857.2815385478222
-1243.2380068626903,-967.4863485491989,895.316953291899
-1258.217638031336,-905.4672084758813,894.8835739013833
-1252.4766357522703,-875.12453284251,832.073134046795
-1268.4046029989856,-871.2740844223055,816.1227330433941
-1317.718079058598,-874.5504326146033,838.9429621736273
-1340.9676087144949,-855.0962867034107,830.6802016998671
-1332.3917953633506,-808.5951879591911,846.350180744699
-1344.475432487139,-766.1545991750497,822.4776044826725
-1310.335333676638,-708.6313878847518,795.3225617310703
-1288.3094634763147,-651.1550835402509,752.2884981109759
-1235.6411210760048,-601.6886500486916,705.8149317045068
-1194.2916286397497,-536.6236176472089,663.0439548673604
-1162.7314118480829,-528.9533122931889,683.1140093711921
-1135.9944527438015,-563.9805642089807,683.6320252073848
-1114.305088893761,-528.7636450775749,746.6321322775872
-1098.6218535381604,-509.50426496306085,750.7273125889066
-1082.6327033186667,-505.618126475402,766.6522206869829
-1045.4028643828424,-517.8292281258126,731.9288442026584
-990.3861155440442,-565.3163924479818,662.2699902617103
-936.4288518505301,-570.5893449852907,553.2072624188689
-833.91372181122,-537.0182478216313,503.60928553583545
-767.1243492935916,-452.24210102328533,523.9465056874673
-735.0981221925939,-417.42185149872796,551.7816991531257
-707.1140501598406,-409.6526336720491,579.6464643889606
-676.8590701207854,-433.20603875941333,568.4051128570919
-619.4663825057487,-414.4452998730454,553.5029801206324
-595.8823859319951,-387.4748257559922,561.6148225948718
-562.3194464980397,-411.19444458607177,534.7259257748569
-536.6256570796348,-458.0667200318152,507.7962403063228
-551.9856423957214,-430.90046040187025,503.5501419954827
-559.3123033859678,-338.06039779129475,495.27718435959275
-578.3085967175335,-299.22450582003034,494.8621598609108
-615.1509434924261,-368.0166009799473,557.3360933652166
-650.4300653128236,-433.5517225556128,553.1042710813581
-629.1903963127063,-468.95830890263244,506.44613604034004
-578.4870470548047,-485.6367872820995,416.99561012170324
-534.4842530323812,-378.42178521717415,330.9519560706256
-512.5929853721709,-263.05211259706425,272.0205166902051
-456.43109522619864,-51.50535605940867,181.8827020440212
-423.4697883579001,32.757261654081674,115.37273176874878
-531.7218418114239,79.84408539103569,93.96970423131243
-642.0276037178854,111.96484018497654,127.53080817608462
-786.7661229879725,-33.2319395512229,204.345010783499
-851.3702436611892,-214.00886133389082,266.7812147879245
-871.9419985418059,-438.17715529768066,275.078645612926
-843.2940912544041,-554.819433751587,236.65471899170464
-856.3413601994566,-753.0563444193482,123.31428163542088
-829.4228916092653,-722.383280732972,115.76430279453228
-829.2607567314018,-641.2434419501054,103.719414886837
-823.9378380996569,-509.5990985708678,119.05390729759908
-804.0176818791331,-416.89873708147024,119.0396312706174
-784.8602733859168,-355.2844243447049,103.41961832022149
-751.1902637495987,-286.29144509083125,60.520565126725245
-724.2157107676934,-267.19114070554167,56.93554883675874
-754.2249391994209,-324.67560277974644,92.00154996864374
-856.5728357798025,-508.8190156679397,177.4316407743725
-960.0679130997845,-681.6629532001244,227.4844110883941
-1033.2784386105347,-758.3354152539349,242.34473546012148
-1060.0969750118545,-754.223919483208,245.85357894897854
-1082.693886291445,-757.777630485436,261.2258008596208
-1093.1969632851178,-722.664722407754,284.4977642722031
-1076.8305180668222,-625.9966451336594,292.26596238266893
-1023.427979993168,-568.6223124104562,265.4005190355524
-948.5094298256796,-565.8955912569533,203.71890502873052
-892.9165413265489,-570.758617876645,141.77420423896032
-831.6978784804189,-575.2056002814418,130.93258146257898
-821.6914032824666,-583.4081974986362,87.93920451938226
-813.8752785099908,-567.9931475070488,88.00426241377026
-810.7314934253799,-552.7534887040937,64.45218295748293
-810.8671156817059,-572.0964855480721,64.51540536268757
-825.5173785135598,-579.5098224164216,87.86874212906548
-856.5911906716362,-575.471746213029,79.54041390281085
-851.2927452290029,-544.2439569067928,114.83636104072238
-848.2030051036797,-517.4315388027513,87.31942100513429
-851.51096449858,-517.2653250600358,102.96788403787228
-828.6907353683471,-521.3808996956149,95.47429550356136
-817.2393222966049,-536.9448282542969,95.69832715555262
-825.3001789601955,-548.5604156363286,87.76758628073807
-813.1125307826833,-556.2164449633668,107.59943507721803
-828.7988252869227,-556.1654591527179,99.51461508262253
-851.428367485329,-563.5869537507713,114.89958344592701
-868.6778869440635,-566.7939612405868,173.52102909760217
-872.7220814447339,-555.2273202367782,165.5723412174392
-845.8851901515808,-536.1596467703039,158.06009187643082
-860.9708718063763,-547.5447782882025,169.64712720449901
-831.3440369545156,-544.2215231501074,134.75753697745918
-820.7104362855819,-559.9914343838111,111.42235115967229
-801.5795404139029,-560.1739635859341,107.78502342798001
-809.5047748211674,-552.4455344077743,99.79116211958213
-790.1281273421607,-537.1191997267161,100.02967374179768
-800.9248826051711,-544.562108365242,123.44072644583014
-804.1787970407837,-517.3489417895,135.07364900348233
-827.5180617234225,-528.810552023372,130.83876757098503
-823.6094894790781,-540.4118633784218,134.86052831496997
-826.4544977132864,-532.4060713903322,162.26336210632581
-831.2889722790148,-536.483916526031,134.73204407213473
-843.204356227662,-548.0689124216731,126.74358725966566
-835.3331667796853,-544.2256020149593,130.77350573335443
-831.3440369545156,-544.2215231501074,134.75753697745918
-824.3181922470977,-563.7613252231904,119.23031820244427
-828.0891028026901,-571.4346897258494,123.12461441980699
-827.4629970479216,-540.3822916082455,134.8034242070432
-813.8304109966198,-516.7809598588714,189.87217857270323
-830.634314470283,-540.1814075142888,154.37789663136752
-827.0000458872296,-532.5427133628712,146.5576929940398
-818.2294667394065,-516.888030061234,174.10838563627743
-814.9480199660435,-520.9230471159876,158.47205722647388
-811.1220447349504,-524.8214221982023,158.54343736138236
-803.8514681364178,-528.8523603881041,146.89215991189653
-815.1662392356208,-551.8724538960807,158.57402884777167
-818.7474825755994,-532.4652149306849,162.37960975460533
-810.4398545884682,-543.9594560833721,182.16516343501604
-818.7199502378489,-547.9057578275966,166.35650298521924
-823.3096929124625,-536.4747390801141,142.70112627655726
-823.4463348850016,-517.2000632224052,134.7850693152096
-831.2349273197271,-528.7463099019543,134.70757088302327
-827.2447777783444,-528.7422310371024,138.69160212712805
-831.2349273197271,-528.7463099019543,134.70757088302327
-819.4286530058686,-551.9458734634152,146.7361433313109
-815.247816532659,-544.1695176232455,154.62160880626922
-822.9823640080967,-547.9791773949311,154.51861746875846
-822.6275027659804,-536.3044464725468,162.3337225250213
-821.8096903631721,-536.0994835137382,185.89324590966336
-825.6631979320156,-536.0688920273489,185.8351220855236
-821.7005807283834,-539.9336164745353,189.83240964039712
-822.8457220355575,-547.9445070436898,158.44554460493646
-806.5057894387993,-513.0742914246965,178.19540821789298
-803.742358501629,-532.6864933489011,150.83132364263028
-791.637307337368,-513.330240194154,162.72121468595293
-776.6597156011483,-517.4203219244085,151.18516516853362
-776.767805519724,-532.8955351725616,151.23513126296953
-803.9605777712063,-544.3275736362571,146.94212600633244
-795.4622628522483,-548.0505575298395,170.63013363380975
-814.1842525225231,-547.7650369902057,186.04722305782303
-810.9578704246609,-559.5376606690359,170.43638755334393
-806.9952532210287,-544.0920191910592,170.44352556683478
-818.3650889957327,-555.5403731141624,178.1617575828647
-822.7641447385193,-555.6474433165251,162.39694493022594
-803.2233229492233,-555.7280008973504,170.5393788908547
-803.3059199624746,-548.025064624515,166.5879785655652
-816.0380965977168,-559.8150234789658,135.03999836845406
-807.2410048283564,-559.6008830742404,166.56758424130567
-818.992214466714,-567.2834250228162,162.49279825424586
-818.9371497912132,-559.5458183987397,162.4673053489214
-822.8181896978072,-563.3850499406016,162.42243783555037
-822.4643481719038,-551.7103190182173,170.23754289181323
-822.4908607934412,-555.5791223302555,170.25079920258193
-810.1400580218526,-540.0223317850644,190.00576139660336
-811.83074750297,-548.1708840429709,142.91220753264366
-788.1641539159654,-548.212692407703,158.96559987355522
-795.2991082581718,-544.14708386656,174.54380445921902
-791.8545068907324,-544.2796469742472,162.82216659103773
-807.7314883267987,-571.3102843478661,154.8255520488648
-822.8722346570951,-571.1226565646781,162.44793074087482
-815.1927518571582,-555.741257208119,158.5862654423274
-819.1013241015028,-563.4492920620193,158.55363452351213
-807.1043628558174,-559.5672324392121,170.49451137748366
-814.1842525225231,-567.0743831991557,190.0363528829927
-803.8779807579551,-571.3398561180423,154.88367587300456
-811.0669800594495,-575.0118542009759,170.48737336399282
-802.8419490855696,-559.4938128718778,182.33137717773147
-825.0350527448212,-582.2548984617582,213.47351032207737
-817.2739926478463,-574.5764353780344,213.56324534881944
-828.8610279759143,-597.6658695884936,217.39227972855156
-816.8915990679795,-578.3422473525618,225.35524363569618
-816.9741960812307,-570.6393110797266,221.40384331040673
-826.1261490927076,-582.5281824068362,182.0611523812923
-825.826352526092,-578.5910581085284,189.90073062666661
-825.6897105535531,-559.2470415483372,189.83750822146197
-807.6223786920101,-555.835071099713,154.7755859544289
-816.1206936109683,-552.1120872061306,131.08757832695164
-771.5519570903418,-513.2731360862272,186.56931775886773
-799.4258997720935,-524.8764868737031,162.64269653755363
-777.5315729632445,-563.9815839251937,135.63041405576828
-766.6797530247333,-587.4197610804914,120.17355569944887
-770.2599766484989,-568.0125221150954,123.97913660628248
-813.5489693218378,-560.1872198967029,95.83201195107404
-813.0849984449328,-552.3476416513286,107.58617876644932
-823.4463348850016,-536.5094094313553,138.7752188565922
-834.9517929160315,-547.9924337056998,142.5655040202312
-826.5901199696126,-551.7490682343105,162.32658451153046
-830.7434241050717,-555.6566207624419,154.4288824420164
-810.8762931276227,-547.9312507329212,170.39865805346375
-822.8457220355575,-567.2538532526398,162.43467443010613
-799.5615220284196,-563.5298496428445,166.69606848414088
-810.9578704246609,-559.5376606690359,170.43638755334393
-792.1818357950983,-552.0855745845931,154.9938052240062
-800.2151601209384,-559.8323586545865,147.05021592490812
-780.321516521952,-548.2381853130274,163.0077549417997
-799.8348059734977,-524.9794782112139,150.8629348452326
-806.9952532210287,-544.0920191910592,170.44352556683478
-796.0353433639419,-552.0560028144168,154.9367011160794
-818.9106371696759,-555.6780348029145,162.45506875436567
-826.3178557407475,-551.6807472480409,170.17941906767348
-814.648223399428,-555.60461523558,174.29295427082644
-823.0364089673844,-555.7157643027946,154.54411037408292
-822.3817511586526,-559.4142750072655,174.18996293331568
-803.4966068943014,-555.7963218836198,162.68654433471167
-807.2410048283564,-559.6008830742404,166.56758424130567
-814.4565167513882,-567.1427041854253,182.18351832684965
-791.7994422152316,-555.8513865591207,166.78682322709594
-795.1349339478824,-559.5539761284435,182.44762482601092
-829.6258151356478,-551.5145335053255,185.82798407203276
-822.2185965645762,-555.510801343986,178.10363375872495
-821.482361458806,-547.6029021123421,197.71073710186457
-814.047610549984,-547.7303666389645,189.97313047778806
-814.838910331255,-544.0665262857348,166.40137049859027
-798.988441516726,-540.2150581493171,178.39935146048856
-811.5849958956424,-551.9713663687396,150.77829839955544
-796.1995176742313,-536.6491105525333,147.0328807492875
-811.3943089638155,-544.1990893934218,154.67973263040898
-811.4493736393163,-551.9366960174984,154.7052255357334
-810.7947158305844,-536.3248407968063,170.36092855358356
-826.0986167549572,-559.350032885848,178.05876624535392
-818.2009146854431,-551.6379191670959,182.075428408274
-829.3800635283202,-555.3150158310942,193.6940749389445
-825.7447752290539,-547.6753019634637,185.8738713016168
-814.2933621573118,-563.2392305221457,186.09718915225895
-806.3691474662602,-532.3489672824054,186.11146517924064
-824.2182600582258,-524.1208771598865,225.06258508257156
-790.7368979213086,-520.8282135081807,190.23213839588445
-788.1376412944278,-544.3438890956647,158.95336327899946
-782.1580254215253,-474.3260950477483,205.9021174407163
-788.9554536972362,-563.8581982634233,139.38398943574003
-795.9802786884411,-563.6277423992904,158.90033803592462
-803.6332488668405,-536.521646025911,154.770487373364
-816.0931612732178,-548.2432838940923,131.07534173239588
-819.2369463578287,-563.4829426970475,154.6277271035471
-823.2821605747121,-551.9163016932388,146.67801950717117
-830.4171149169188,-528.5413469431459,158.26607455145236
-854.3009080572878,-540.1406188657697,138.324504290456
-853.2648763849022,-547.6039218285553,169.76235513656553
-829.6798600949357,-539.942793920452,181.8633274359746
-818.5833082653098,-547.8721071925684,170.28241040518427
-803.3874972595128,-540.3221283516798,162.6355585240628
-795.9537660669038,-521.140246669352,150.9088220748166
-795.2725956366344,-520.9689343455717,170.54141832328065
-791.691352296656,-521.0678468182306,162.7456878750644
-799.6706316632082,-540.3853507568843,158.76675521202452
-784.8296818995275,-544.5101028383801,143.30479827464018
-811.0669800594495,-555.7025079920259,166.49722382261018
-841.5942243273698,-590.1464822339943,181.85516970627077
-833.9973385406843,-547.75280039565,170.05195454105126
-837.9048910688157,-536.150469324387,166.02917408085332
-834.2430901480119,-524.6429718609312,158.19571413275688
-822.2185965645762,-536.201455135036,174.11348421734235
-814.5941784401401,-528.5576624025534,170.27731182411938
-803.60571652909,-532.6528427138728,154.75723106259528
-803.4425619350136,-528.7493690505934,158.67090188800458
-819.3470757088303,-540.3394635273004,146.69841383143074
-819.2369463578287,-563.4829426970475,154.6277271035471
-830.6883594295708,-567.2283603473154,158.39251936186162
-830.9065786991481,-559.5600944257213,150.51419190039414
-819.4011206681181,-548.0770701513769,146.7239067367552
-807.2144922068189,-536.4227335532522,162.5651981053673
-822.4368158341535,-528.532169497229,166.23515675587484
-798.8803515981504,-524.7398449011641,178.34938536605264
-815.4935681399867,-521.0596890885267,142.76638811418783
-818.9381695074263,-540.2364721897897,158.47817552375176
-827.1632004813063,-536.4451673099377,142.6430024524175
-819.3195433710799,-536.4706602152621,146.68515752066202
-830.6618468080335,-544.0502108263271,154.39013322592322
-838.1231103383928,-547.7915496117431,162.14099616076848
-837.4409201919108,-547.6202372879628,181.77359240923252
-829.4351282038209,-543.7422565300078,189.72941830288633
-833.7240545956062,-547.6844794093804,177.90478909719428
-814.6757557371784,-540.1640723386682,170.31504132399957
-806.887163302453,-528.6178256591191,170.39355947239886
-815.1662392356208,-532.5631076871308,154.58387930638904
-811.4218413015659,-528.75854649651,150.70283939979504
-811.5584832741049,-528.7932168477513,146.77591226361707
-819.0748114799652,-520.9617963320808,150.5621185624041
-810.2766999943917,-520.7476559273555,182.0897044352557
-822.3011935778273,-528.4985188622007,170.16208389205286
-818.5567956437725,-524.69395767158,166.28002426924587
-826.8083392391898,-524.7704363875533,150.45912722489334
-826.1812137682083,-532.3377504040626,170.11619666246884
-822.4643481719038,-532.4009728092673,166.24841306664356
-814.9204876282931,-536.3635900128994,162.44997017330078
-807.4592240979337,-532.6232709436964,154.69910723845555
-811.2036220319886,-536.4278321343171,158.58116686126255
-823.0914736428854,-544.1440247179211,150.57945373802474
-827.1907328190565,-521.0046244130259,138.6661092218036
-818.9657018451766,-505.4865830839278,150.5111327517552
-849.9569169900017,-528.4607893623205,150.12466030703658
-832.9347942467613,-493.419261419547,189.50712016845713
-817.7104311870007,-539.9295376096833,193.81644088450187
-829.8165020674747,-559.2857907644303,181.92654984117922
-814.375959170563,-536.2269480403604,178.15563928558683
-810.494919263969,-532.3877164984985,178.20152651517085
-807.1594275313182,-528.6861466453886,162.53970520004285
-814.8939750067558,-532.4947867008613,162.43671386253206
-815.6302101125258,-521.094359439768,138.83946097800984
-827.3273747915956,-521.0392947642672,134.74020180183857
-807.7325080430118,-513.3822457210159,142.85714285714286
-826.8358715769402,-528.6392396995916,150.47136381944907
-826.3178557407475,-532.371401039091,166.19028924250384
-821.8096903631721,-536.0994835137382,185.89324590966336
-824.7903208537066,-528.1263224444638,209.36915256484122
-825.7723075668043,-551.5441052755019,185.88610789617252
-817.7114509032137,-520.6191716845202,189.8273110593322
-826.1812137682083,-532.3377504040626,170.11619666246884
-822.5194128474046,-520.8292332243938,162.28375643058538
-815.3028812081599,-513.2884318294219,146.6678223450414
-818.8015275348871,-520.8934753458113,158.41495311854712
-807.5142887734345,-521.0505116426099,150.73547031861034
-823.337225250213,-540.3435423921524,142.71438258732599
-826.4269653755362,-528.5372680782939,162.25112551177008
-821.1835846084036,-505.0470853961343,197.57205569689955
-825.8538848638425,-524.5318227937166,177.9445580295004
-833.9147415274331,-555.4557366684852,174.00335486634071
-829.1077992994551,-516.6269827107117,193.56763012853526
-810.3582772914299,-532.3540658634703,182.12743393513588
-826.3994330377857,-563.2871571841557,170.21816828376666
-819.2379660740417,-524.8642502791474,146.64742802078183
-826.6716972666508,-544.0461319614752,158.37518418624097
-845.6394385442533,-539.9601290960727,165.92618274334257
-833.2070584756264,-532.1062748237166,189.6335649788664
-849.0840399116927,-539.8275659883855,177.64782061152383
-845.6669708820036,-543.8289324081109,165.93943905411126
-848.4844467784617,-531.9533173917699,193.3290165346984
-840.4501027364087,-524.2075530379896,201.2726058337965
-821.9187999979606,-532.2643308367283,181.9540821789296
-825.8538848638425,-524.5318227937166,177.9445580295004
-807.1053825720303,-520.9485400213122,162.51523201093138
-807.6774433675109,-524.9539853058894,146.8207797769881
-811.8042348814325,-524.9927345219826,138.9098213967053
-804.2063293785341,-521.2177451015383,135.08690531425108
-818.7750149133497,-497.71532582482297,154.41256698260875
-842.2774341900649,-513.0793900057614,146.26299500848916
-841.7869506916227,-520.680354657299,161.99415702609966
-853.8644695181332,-536.1688242162207,150.09202938822128
-853.183299087864,-535.9975118924403,169.72462563668535
-868.4056227151984,-528.1069478364171,173.3945842871929
-864.8804637669336,-516.6331010079896,161.6352169191314
-833.9983582568972,-509.1341079777498,162.071655458286
-846.1584740966591,-516.9186215476234,146.21812749511813
-831.3991016300165,-513.3404373562838,126.80375051623135
-820.2474851248899,-513.5321440043236,115.19734058011656
-823.7736637893674,-505.6966446238013,122.96757812300838
-827.2723101160947,-513.3016881401907,134.7147088965141
-831.3991016300165,-513.3404373562838,126.80375051623135
-843.1768238899115,-524.8917826168978,122.7412011237273
-846.8936894862161,-524.8275404954802,126.61000443576553
-834.3246674450501,-516.9400355880958,154.24431380746742
-845.8311451922931,-509.1126939372773,154.0454691459367
-846.7305348921396,-520.9240668322007,130.52367526117484
-865.9705403986071,-516.9074046692806,130.22285897834635
-842.6322954321814,-505.44477471919566,134.45774041084368
-842.4416085003545,-497.6735174600909,138.35917464169722
-847.6309443081991,-494.1167473092239,99.02321383958845
-827.8729229655388,-501.8665905278562,115.0433634319569
-847.1669734312941,-505.5865152727996,114.76702033823989
-835.579938103226,-501.80642727129043,114.92813549989039
-859.0272927044405,-509.4339045443654,106.75307062044635
-854.246863098,-493.78431982379306,130.31973201857926
-853.456583032942,-497.4471404608098,153.89149199777705
-853.9470665313844,-509.1565417344354,142.1504795215492
-845.7495678952548,-497.50730371737546,154.0077396460565
-856.6819454145913,-504.9838629909297,173.49247704363876
-842.2774341900649,-513.0793900057614,146.26299500848916
-842.7138727292196,-517.0511846553105,134.49546991072387
-812.7046442974921,-478.87606879005585,103.41961832022149
-823.9103057619067,-486.4209490498794,115.05152116166073
-835.7430926973025,-486.40055472561994,107.02431513309847
-843.804969077106,-478.7057761824884,95.10393457500778
-838.6156332692613,-482.2625463333555,134.43938551901007
-853.7298669780201,-478.2061152381293,142.04952761646436
-865.1802603335493,-481.9515328883972,145.81431987477887
-850.503484880158,-451.36004649905937,118.45941274543294
-862.4178491125921,-482.2554083198646,114.46008575813353
-847.1404608097567,-482.40836575181135,110.76463420230152
-831.5897885618434,-501.80234840643857,118.91216674399517
-824.5649635706385,-502.03280427057155,99.39551222894669
-823.6920864923293,-513.3995808966365,126.91897844829786
-819.3480954250433,-501.72077110940035,138.71913446487844
-840.6683220059858,-516.5382674001826,193.394278372329
-829.8440344052251,-505.22655544961844,169.970377244013
-826.2097658221718,-497.5868415819878,162.15017360668529
-818.3926213334831,-520.7904840083006,170.19471481086816
-829.3260185690324,-528.2680629980676,189.67843249223742
-818.3926213334831,-520.7904840083006,170.19471481086816
-818.3926213334831,-540.0998302172507,174.1838446360378
-826.0986167549572,-559.350032885848,178.05876624535392
-830.0612339585894,-574.7946546476117,178.0506085156501
-807.1043628558174,-559.5672324392121,170.49451137748366
-811.4483539231032,-571.2460422264485,158.69435536090307
-804.067647973569,-617.7308255112604,158.9625407249163
-784.3371589686591,-610.0391061167678,171.00538920018562
-795.8691296212265,-644.7002799121005,178.79908021597592
-799.0965314353016,-613.6172903081073,190.41976617907238
-798.6866055176845,-632.8246648957596,206.18865769656307
-791.3895162976145,-632.9867997736231,194.52514365252154
-791.2793869466129,-656.1302789433702,202.4544569246379
-771.7936298328176,-663.948443148272,210.62136407437814
-760.3422167610755,-679.512371706954,210.84570164123326
-744.3010610147197,-667.8886265952186,226.74511683398512
-728.9420954148461,-656.4361938072635,223.0119357782729
-732.4958064170742,-652.4684780225664,230.7944099157205
-703.0861711185778,-641.4769569628774,188.02751194342616
-706.639882120806,-637.5102608943931,195.8099860808737
-706.6949467963067,-645.2478675184697,195.83547898619815
-711.8292179286506,-653.2628369524762,160.46356299041977
-722.1079573554681,-664.4379069305013,199.59313323102185
-724.6256366853106,-648.6251676158525,234.8243283894093
-713.3383979238579,-629.4738774199141,223.15469604808985
-732.740538308189,-687.2877078309107,230.908618131574
-729.2969566569625,-668.1099050134349,215.1968307220101
-725.525026385157,-660.436540510776,211.30253450464735
-740.6943247694168,-644.8083698306762,214.9470002498305
-728.8340054962705,-621.6516343501605,218.9718201424544
-708.5855006551677,-617.6920762951671,246.73359404077848
-693.1990027175437,-621.6801864041238,246.9773062156802
-693.3336052576569,-660.3325294570521,251.03067816226746
-677.8114850637069,-644.9766230058175,251.21116793196458
-673.1666777135924,-667.9793813381737,278.83120127668474
-670.1034502098066,-702.9648248892333,263.296844488179
-677.6462910372044,-737.6209001035013,275.07456674807406
-677.9736199415703,-726.1174815048972,263.2570755558728
-689.5881876073889,-733.7653531022318,263.10819698877805
-675.0195020725732,-737.958426169997,239.7934054952507
-651.4905701743205,-699.4162124680702,243.94059133343194
-683.1364431278776,-718.691908041992,223.90826632948054
-698.3047217959243,-703.0637373618923,227.55273207466362
-717.953633503796,-699.14904682027,215.47113438330115
-744.2459963392189,-718.0790585979922,238.68905283659558
-724.8418165224618,-737.5036327390088,246.89470920242897
-716.1803470094274,-756.6324891782617,278.4855174804852
-697.7581539057682,-760.8561537324164,255.22783009488464
-690.5956672258111,-780.3612854542582,243.62753845604772
-668.4025635665595,-776.9105657895409,216.47555485308442
-683.9532358144729,-776.8259293438637,212.3181718527734
-652.0626309698011,-742.0403501705476,236.22643818225393
-648.3457653734966,-722.7942263668021,228.36748532883303
-660.070462390317,-707.2986187943897,220.29031320583485
-671.8757169879623,-703.4094211580917,212.25087058271686
-685.7632320925087,-679.7356895575963,251.2101482157516
-708.8557254516069,-694.9977821172369,254.840337933953
-720.8526866972921,-698.8798417400438,242.89946107998145
-735.1766403409932,-679.1779047890973,270.0912136152509
-765.5947749741248,-678.8373195739626,281.40802414687994
-785.0529997501696,-667.1513717732356,273.227860686371
-801.3674394416036,-659.5340916622904,245.48546139609348
-801.7773653592207,-621.0173708656881,225.7264203372202
-816.8100217709413,-566.73685713266,225.31751413581603
-828.0992999648198,-508.65076249279826,221.02858774403086
-846.9579316076338,-469.78020017029263,224.53947066531384
-881.5569027139749,-477.21597079532773,227.9708157219846
-867.3165657997381,-469.90562526448895,192.83751332004306
-866.1704047763509,-500.51342711323446,232.20467743826893
-881.9107442398782,-508.2000479266621,224.1448404908914
-870.1054896422326,-512.08924556296,232.1842831140094
-877.8125047799198,-512.0301020226071,232.0690551819429
-908.0124201434742,-538.6681486542296,255.25434271642206
-891.8896871000801,-534.7473398153295,275.1051582344634
-890.6894811174052,-518.9988426220983,306.46755008081254
-871.3138533546115,-503.67250794104,306.7051439584364
-852.5653510627994,-461.4705327507355,283.29653857331505
-837.0972758281372,-453.85223292357745,283.5025212483366
-832.9439716926781,-430.6353341864959,287.411093492681
-837.0167182473119,-403.62713056956255,275.48449266569116
-835.9806865749263,-391.78108732339797,302.933213686631
-856.093569159703,-395.70597502715,279.09734720827197
-890.4467886587164,-387.63288176900375,286.4046335904718
-886.3750618202955,-414.6410853859371,298.3302147012487
-924.145350348998,-441.18531812596564,325.32618172362635
-931.170175340203,-440.9548622618326,344.8435500400239
-922.5637705026692,-429.20263290726194,368.4805718568523
-903.3237649962017,-433.220314786395,368.7824078558937
-852.8743250753316,-441.2424222338924,381.339193302504
-795.6998567298722,-414.81239770971746,358.558733104577
-792.2562750786457,-395.6356146084545,342.8469456950131
-808.2433858657137,-341.5937144692632,314.9526086890019
-821.2773984999975,-299.3927589951717,263.5956213385815
-817.1791590400393,-303.22281309111673,271.51881631342
-819.087048074521,-323.01142592016646,220.53708452937548
-807.7712572591049,-377.22871724798995,224.81377432660494
-807.1431120719105,-423.41370396618623,252.45114284694571
-802.7715886668741,-407.8660908669118,264.2380425527576
-819.3664503168769,-414.77058934498535,342.5053407636655
-814.7216429667625,-418.46400146839136,366.13522456700304
-835.9888443046301,-406.2345449261471,416.7957457439595
-831.3991016300165,-379.04687125572957,432.4708233698562
-808.7695594316103,-371.62435694146325,417.08636486465826
-808.6339371752842,-352.2803403812719,417.0231424594536
-809.3966849025917,-364.05806264116706,397.42827571086974
-818.6587672650702,-333.49308887336656,346.1661219682563
-810.7620849117691,-306.47162894566446,346.1936543060067
-803.1641794088706,-283.38729331627013,338.3805886821698
-822.7590461574545,-271.73499615057136,326.27349808548286
-833.6373787175031,-290.784314725212,349.7228921191233
-826.2301601464314,-294.78058256387254,341.9975220896025
-819.0962255204379,-298.8461911050155,326.4203372201517
-824.2304966527817,-306.861160539022,291.0484212243733
-804.9364461870263,-303.1412357940785,291.32476431809033
-797.4476503189163,-295.53211341283725,283.56268450490234
-813.0798998638679,-287.74352097811186,275.4528814630889
-827.8117399927601,-287.45392157362613,294.8540021312069
-839.3457500777536,-283.49538323484575,294.6673940642319
-862.1109145324858,-329.5712603182535,314.10522451601724
-897.0372145431927,-344.8119388374216,309.7092279218694
-904.6616326676287,-352.4557315699041,313.54540031509237
-909.0882207481659,-356.4316050843051,297.7938439732223
-906.0249932443803,-352.7983562174647,274.2802078181643
-913.9502276516447,-345.06890732309205,266.28563270841727
-900.446125843178,-345.6674807401101,211.54522696333612
-901.183380665161,-295.64734134490374,179.9686947122616
-897.7112469599712,-272.60175493160256,164.24467070814194
-893.886291445091,-237.88143759591708,156.33575176028515
-895.0039004145148,-242.02352485303342,124.9356304140558
-898.1211728775884,-234.08503413500023,144.48562964926862
-917.3061137085549,-260.9494577659038,152.137580111455
-928.1304013093157,-291.57051592541796,179.55163078115362
-950.9771430610863,-329.94243701977746,195.03704119143646
-974.642716931878,-349.2099748639954,182.97379839190754
-985.5220692081394,-348.949947229686,202.43304288416536
-978.6328664732607,-349.2140537288473,178.98874743158981
-987.4309779588341,-349.4281941335727,147.4611615587382
-980.0502720093,-357.2942850004844,139.74904783998616
-964.3915098428108,-341.90370819800853,143.85646474586125
-967.8095985887129,-318.5929955693331,151.57571647810417
-952.4496132726263,-326.449908990328,151.8326849637746
-936.5175671610592,-349.60970361948273,171.772215792345
-928.9196616581607,-326.5253679900884,163.95915016850813
-913.9971345974417,-319.0437101354693,148.45844401503064
-901.8645510954302,-315.12799987763407,164.3252282889672
-878.3886444402525,-322.941065501471,176.4771863990252
-881.179607715173,-307.19766688930474,203.8545272850566
-865.329138900644,-303.34517903667415,215.8535279631679
-872.8444473902914,-314.8231047299537,223.62886408712458
-872.2988992163482,-314.68646275741463,239.33453319941063
-856.4494501180322,-330.1433211137341,255.32266370269156
-879.5144111393801,-341.5366103613365,258.9406168263373
-849.205386141037,-318.73371640672406,239.69449302259184
-862.6289303686785,-306.5297527698042,294.3971692677928
-854.1866998414341,-298.6809970785131,314.11950054299894
-858.2574069636421,-310.2914858794798,310.17319879877437
-849.7325794231467,-290.83632025207385,329.85882029031325
-858.2033620043543,-302.5538792554033,310.1477058934499
-842.9800186608068,-291.13509710247644,302.4886174177727
-854.7036959614139,-314.2581819479639,302.3907246613268
-846.9966808237269,-314.3173254883166,302.50595259339326
-846.8335262296505,-310.4148715412501,306.42064313501555
-846.2339330964193,-283.2312767356845,318.11168951680753
-873.9437014678816,-310.2405000688309,302.0888886622853
-902.0083310814601,-368.2338005333116,282.2411322928829
-930.3176925861534,-403.1182921792866,250.53815523139912
-958.4893924020947,-495.8961521008704,234.73051449781528
-944.4377029872588,-573.5944486649366,211.65535631433772
-936.4574039044935,-612.2049833531329,227.60371788531253
-890.6629684958677,-515.13003931006,306.4542937700438
-849.8539256524911,-623.98678447788,283.88491482820336
-814.2739875492651,-573.8238848128567,299.94748461503167
-755.8452682618428,-543.2181223965371,312.4930531832991
-726.9261164617888,-563.2443291032106,261.9742725599466
-730.0719409788256,-501.24660307036555,269.56707948178024
-741.7140409823946,-532.0726241886883,273.4216067668368
-740.7850795123718,-574.3215063247899,308.8995732487649
-766.0414106754091,-600.7148210652977,363.5543228319559
-787.9622501057956,-604.0972197437454,398.55914099106224
-801.3582619956867,-568.7151065858372,449.25943110032483
-834.4031855934495,-568.0369953042069,495.85740288477723
-854.660867880469,-586.4489912457364,581.9581610437816
-839.2733502266321,-590.437101354693,582.2018732186833
-878.8373195739626,-568.2225836549688,436.3233112224869
-817.2474800263087,-397.7953735475418,511.23880224133626
-796.5921084162278,-297.18609311028746,530.8316295574942
-766.6634375653256,-328.5454258079977,511.76293637480694
-724.6297155501625,-359.85683184369793,508.573264060612
-654.5588962591712,-317.7333748017927,521.2544548852055
-636.6098514783337,-267.01167065205755,584.1464720368322
-644.398443913059,-297.8682832567697,588.0581034298156
-623.7389934381263,-332.4244262821657,635.579938103226
-605.1087782270196,-262.22308331591324,714.114401961934
-634.1095073241117,-253.80226682914147,764.6719318013797
-653.8675286667722,-284.6721357446223,756.6304497458359
-630.310044714556,-280.8787914323444,768.7446783560135
-660.1285862144566,-291.97330382954425,799.7328343521998
-654.3580121652145,-277.07117109308484,740.8992877282253
-614.9796311686458,-215.3671233295774,753.0543049869223
-612.6536584868431,-181.02206156026782,701.9532664059593
-656.2771180780389,-176.14679834602032,775.8510806442569
-747.88638321955,-244.7278122498509,813.956855807029
-789.7630689379147,-435.4983608061877,645.2142168834414
-778.6920100136133,-485.9151698082424,641.6258355299722
-724.3635696185752,-432.16898737081476,642.2580595820184
-737.5148496173516,-400.58735653867535,700.8244405581928
-799.032289313884,-458.00553705903656,715.7948942809217
-803.1835540169172,-539.1504744229682,723.8557509445122
-792.9303074954241,-667.0106509358446,712.6664049395055
-724.657247887913,-706.4379783106363,690.2744566187231
-649.3063380461218,-738.3591746416973,648.3406667924318
-642.0082291098388,-738.5213095195608,636.6761330321773
-592.8130401309317,-750.7201745754157,613.906889712593
-551.2698016142108,-755.1212697506285,590.9959058394049
-489.3414162838483,-755.5291562358196,599.773623000719
-466.0572162767102,-751.8041329098113,604.0350170547538
-420.4432706377816,-744.5947392840574,585.0703349257902
-379.4466000112169,-749.1334961480221,546.4536819403161
-346.31907940020295,-757.5145437024877,503.8081301973661
-317.99952073337994,-785.4149990057767,437.607133934626
-309.3839384499294,-836.4477166004702,363.3412021434435
-273.1666777135924,-875.9454043939572,305.14701758500615
-237.41236813794723,-923.2836901490317,235.19958395578513
-203.5210800834128,-958.5067275777152,220.12715861175838
-199.8307271086457,-981.7491192201212,220.26074143565847
-221.88718879535827,-1004.4745147425472,255.32878199996944
-240.39095919605575,-1011.8582798407205,278.6241988854502
-259.14048120408097,-996.1322164041749,290.0643950788496
-262.64014724702116,-945.809221293714,289.8420969444204
-277.7278683342426,-899.2652944685495,289.4586836483407
-247.47492772761342,-826.2709487949504,258.2696435581978
-221.40180387798077,-780.3623051704711,223.18324810205326
-206.23352520993413,-757.3717834326708,211.5595029903178
-176.6607353173612,-742.4767887097022,172.7052561272198
-160.81128621904526,-719.3149546481216,180.71410726394848
-136.76433848459973,-665.194536360531,196.59006898380184
-125.2578607373568,-673.0218780113495,196.7889136453325
-112.57972906140223,-668.9685060647622,228.3623867477681
-117.11440706051508,-669.1092269021532,208.67166667516432
-124.03114213314436,-653.4045775060802,228.138049180913
-107.88189646821291,-626.3056191461917,243.98749827922893
-123.15928477104823,-606.842295789082,243.69280029367832
-130.839787287198,-564.2956565187909,235.58503668429077
-146.1181953062463,-525.524006668944,231.30018915735752
-162.13283843106464,-475.35090984179106,203.41910846211502
-212.6924077029363,-444.18532322454666,182.93300974338842
-251.20097076983478,-401.40007036041874,174.36331468952193
-327.6429769595122,-369.75215797443576,184.88474657502817
-423.381073047371,-322.51584384065916,191.14070554164778
-514.7466260139803,-279.0402431003452,213.1737137554619
-633.8504994060154,-227.82397658731577,211.21687834275724
-787.9347177680453,-218.89636114269402,208.87866906639886
-903.2381088343114,-214.06698515803052,214.98371003349772
-1043.6795439829095,-225.01159927192265,165.8221716896188
-1093.6354412566984,-243.90082240112577,172.98669780200171
-1189.0706816293027,-269.9637490886287,203.0418134633132
-1269.6996425894674,-342.6399433037786,225.62750786456132
-1347.0349201817135,-361.42209623061905,220.60744494807096
-1407.7080348539002,-337.5291256443332,243.1656070115687
-1469.7475692514774,-275.35804785528194,218.47929721158604
-1508.3948137233408,-193.98877292449512,198.00237593877625
-1506.3655784595148,-124.96214303559321,131.08146002967374
-1502.5416426608476,-51.62343919687151,115.19326171526467
-1494.5674618753603,-12.995773276297209,115.1820448369219
-1479.832562597829,6.023626824654699,91.7907746274212
-1476.008626799162,2.1251497708187816,91.86123701773796
-1463.353948596106,2.309504264963061,123.446844743108
-1424.36000061183,-9.457409003074446,139.7694421642457
-1396.3993820519752,-5.557555332351008,167.6474637108493
-1335.2673950839483,-40.92059979707648,160.83371997573076
-1280.0395649890636,-33.291898864546,196.9561471042609
-1233.4385340559725,-79.90261710166061,217.43510780949663
-1202.7960618559857,-126.53148628736623,221.97590410588734
-1187.3269669051106,-157.53187887810824,230.1611661474612
-1137.2690980100238,-161.78715463486512,230.92493359098168
-1118.4043480699322,-219.96706316632086,231.40420021108127
-1099.9780761014213,-243.4990542132125,212.13666236686333
-1065.9297517500881,-274.8186179786166,200.97790784824585
-1035.5116171169564,-275.1602229099642,189.6610973166168
-1035.205702253063,-309.84179102955653,205.4809746447564
-1018.4038382118258,-305.7496698668761,244.96540612747472
-1007.6611279081033,-306.0443678524267,221.57923449903896
-972.1637868181288,-248.17853191456823,233.68938424436485
-967.3282925361873,-224.79032085370645,257.23157245338626
-971.3469941315333,-190.04553032890948,245.27947872107197
-960.0597553700807,-170.89322041675806,233.61086609596552
-947.2990266808748,-174.54380445921902,269.1357395236906
-938.8557764374175,-186.00439497687796,292.84822034027934
-946.6433491559301,-216.85998786537706,296.76087144947564
-934.4832333161681,-228.38482050445364,316.60454895402614
-930.2197998297074,-266.9300933550193,336.4217138370392
-926.6110241519787,-301.77889493354,336.5930261608195
-925.7656794114198,-317.01447487164324,364.12944277607545
-941.3418445646578,-340.1069682307415,363.97444591170284
-960.690959705914,-370.8738458087115,367.7127255484799
-961.2354881636443,-390.3208537064135,355.9961862613635
-961.1814432043562,-401.8925932912871,359.9608428974217
-968.587642059215,-417.2056716615766,371.67534275211216
-1003.7596936772497,-409.336521646026,355.4231057496699
-1039.1520039972877,-393.79910570888126,331.2935610019732
-1093.237751933637,-374.1073659200645,322.5678493675211
-1113.7340478144934,-354.957095440339,282.94983506090256
-1144.0706051505867,-323.7007540801395,290.23876655126884
-1186.6743485288046,-296.3947933290166,277.7350063477335
-1249.3665013026878,-307.76462910372044,249.36140272162257
-1296.1816726405043,-292.10382750480545,228.98441363768464
-1309.4889692198662,-307.9002513600465,181.74300092284318
-1320.7160447247534,-300.00458872295843,189.39699081745553
-1336.8377580519343,-303.9253975618586,169.5461752994142
-1360.372808247465,-323.15928477104825,161.40883991985032
-1368.2144259252652,-342.44313807467387,161.35683439298845
-1395.756960837799,-346.2405612518037,145.25857453870591
-1407.5346830976941,-357.79088679620463,141.19602514620183
-1380.7263438585044,-361.90238256693164,137.68718165734478
-1366.3483452555156,-373.8667128938017,110.47095593296388
-1359.302106223838,-370.22938516210945,90.94104510714669
-1363.972406479277,-370.4047763507416,67.32390775647139
-1391.7086874722766,-401.28280299592626,51.31405729785401
-1408.1057241769618,-385.9625866121459,19.61984979580183
-1423.5952134520965,-378.1403435423922,15.436769946923771
-1432.4259558564852,-362.9139410502058,-20.06842295789082
-1488.530741894531,-359.1756614134287,-83.7153360219851
-1507.8237726440734,-304.96754753152203,-95.96110802363704
-1546.7667348177004,-266.15306960073013,-116.29863409013274
-1559.360230047978,-258.6000316112026,-147.9098366924485
-1536.3758266074553,-220.1944598818149,-159.4683199665533
-1502.2765164454734,-224.46809053040542,-174.6416972156649
-1440.1248132644687,-174.61620431034044,-169.95508150081835
-1377.055365491784,-147.70385401742698,-133.77860941300037
-1334.4210306271766,-132.5212993223986,-129.267384886786
-1302.8302223491205,-140.29153686529042,-105.21941743612753
-1272.0857785278358,-132.826194470079,-108.70888631693802
-1220.518729637542,-117.39686845150996,-68.74253695196627
-1189.7131028434787,-121.50326564117208,-68.26734919671857
-1158.5301810506137,-110.06714831262461,-59.989598894627626
-1136.0964243650992,-110.41589125746307,-79.2753896590579
-1097.999826648244,-133.9947892501517,-86.47438217943947
-1074.8522686136448,-149.61378248433462,-82.15037754992787
-1055.9365328629044,-142.12804576486366,-93.66623668633021
-1037.1329658955913,-130.8071563683827,-109.12085166698108
-1002.8052393019025,-142.75007265478018,-116.4159014546252
-965.4693498799285,-158.7953072659879,-147.1990944920029
-953.85478221411,-151.14743566865343,-147.0512356411211
-919.3649207425575,-159.18687829177142,-150.43261460335592
-884.3560237185992,-151.64913604543858,-142.0841979677056
-849.67547531522,-151.91630169323878,-141.56414269908686
-842.1051021500716,-132.70076937588271,-149.36395201215504
-842.0775698123214,-128.83196606384445,-149.37720832292376
-819.4480276139151,-121.41047146579109,-164.76166682812178
-822.6478970902399,-105.76904447492264,-149.16408763441137
-822.5377677392383,-109.60317743571966,-145.22492390367762
-818.8219218591466,-90.35786940494461,-153.08285704088556
-822.2665232265861,-70.91606205992873,-145.3513687140869
-837.3532245975946,-82.30068371972081,-133.76433338601868
-891.0280269001138,-101.12505289777856,-122.73100396159751
-929.044067036144,-123.86900725528086,-103.60112780613157
-949.4832588090735,-154.909168778329,-131.27520611013955
-968.4775127082133,-174.00131543391475,-119.72080170088667
-975.6389796719575,-193.11487612997306,-100.14061886576967
-987.8806728087574,-212.50579963596132,-115.95702915878513
-921.2259028312423,-224.31003451739386,-79.59731406749503
-920.4346030499713,-266.59256728852364,-48.04576486363845
-919.151800054045,-277.8563525770778,-8.742394191696452
-898.6024789301138,-289.2690164327268,30.850086420949058
-869.8291465485157,-265.8542927503276,78.29758378243336
-865.431110521942,-246.43787633901488,90.0718390072043
-879.4817802205647,-207.35827219284874,121.12597064237025
-890.3876451183636,-210.96704787057766,140.59847144539677
-909.7918249351206,-210.85181993851117,136.382964620946
-896.7863643548002,-198.9935400977908,175.78377937420018
-887.8250982751501,-175.56657982083587,207.2359062472914
-920.952618886164,-147.87618605742023,245.8923281650717
-976.6546170200834,-139.17902647693148,303.89786522410816
-1029.1281936237147,-142.25551029148588,346.2935864948785
-1077.2078130656241,-145.22390418746465,404.4520809858617
-1169.0332580442864,-148.20759382663806,422.7100997792315
-1203.1427653683982,-124.62461696909752,433.89332748696046
-1212.157056691123,-78.55088128973708,386.5071150698761
-1186.3888279891707,2.0393610458209483,335.60186200180493
-1149.5464812142782,109.45022000377296,265.1476294147339
-1131.9155878918898,205.43814656381133,198.3694737754483
-1110.2160268797195,274.4178695069163,143.51689924693957
-1095.5423105749671,324.3187021052042,112.17184257621106
-1088.0473964095793,331.92782448644545,104.40874304681009
-1064.359388782102,335.7548194337516,120.44989879316589
-1031.9732018579232,343.6311074627932,164.07845696542654
-1029.9541637562268,359.58456761483285,219.00037219641777
-1017.0618916755468,336.65930771466304,262.44130258549046
-1005.0098657543606,290.35093533469643,286.32611544207253
-980.8793012904509,240.22066658848846,326.1021857617026
-1007.6070829488154,198.0095139522671,341.54272865861435
-1039.7944252114637,139.9774642716932,313.7840139089292
-1067.918198365395,74.24645521151464,293.96175044485125
-1077.2282073898834,19.835927661331855,258.68466805687984
-1093.7374128779961,-18.937455706077,235.020113902301
-1086.7319624948377,-80.96495745234103,227.4854308046071
-1088.1799595172665,-150.84152080476005,200.22637699928111
-1077.4933336052577,-216.80186404123737,188.8351271841047
-1080.6544538654894,-293.8383647830809,224.36917805774655
-1087.8740446533732,-378.61757073006584,255.9446905926081
-1094.624565983287,-455.55617871546355,299.27345219825327
-1078.4722611697166,-525.0039514003254,335.0716095710564
-1057.761824884135,-609.751546144708,394.5373802470773
-1023.1016708050151,-671.8165734476096,407.0391010181867
-975.3881294835647,-714.2846945695014,458.9171633534388
-975.0873132007364,-768.2756088980437,478.727190222961
-947.757898976715,-795.42861221722,494.9264019823284
-940.5423870536831,-768.5784646132983,475.3213380716148
-925.4026604395998,-691.527687844473,451.7404006465001
-972.05467718334,-614.0353739554283,423.30765348003655
-1023.4381771552978,-544.4560578790923,371.2827520101156
-1070.3349257901527,-443.85493517154185,330.9947841515707
-1135.923072608893,-319.78912268715624,302.12151958110064
-1158.611758347652,-161.16410802873563,281.6231842678183
-1189.009498656524,-21.788684209184588,264.9997705638521
-1184.2780154283064,82.67135056313829,268.64219687660926
-1191.9870699984194,121.3492884930124,260.54768957799047
-1180.2093477385245,171.51932617152647,256.6299398877293
-1168.350048181591,213.9864275772053,256.6646102389705
-1219.9476885582744,213.9966247393351,212.72095975689967
-1280.896126607965,199.20360163766426,235.40556663080665
-1319.7779058088136,168.51728164051946,231.00141230695502
-1385.9982766796004,107.05490661948781,222.36849484788385
-1405.1281528350662,87.92829355590341,229.9949524047458
-1442.6843009590432,15.096388675031742,272.8495459713562
-1446.7529686488251,-54.442444667649,280.87165341885355
-1458.1737902341779,-131.55664778492147,300.5837875319299
-1470.4409762763025,-174.12572081189808,288.7703752045806
-1550.2133756175658,-228.274691153452,221.03980462237362
-1670.978366720542,-258.57555842209115,187.93573748425817
-1789.1736729668135,-239.02351975445237,107.60657309070888
-1860.3600617948027,-208.05065950146079,47.566804158402725
-1904.2486476013726,-188.79025967073366,-0.2509776529191926
-1929.0583430631257,-177.4499956662061,-51.68095119128347
-1929.6905671151721,-189.19304757485995,-67.34919671855323
-1954.694008657391,-204.93440675460025,-118.69088832577896
-2031.7335685478731,-219.7794353831329,-115.87035328068201
-2064.0585724992734,-239.22746299704798,-155.53527453309746
-2061.7030280472945,-239.63331004981316,-198.66927034206384
-1978.6981283108912,-240.73256412740338,-248.44161869751653
-1872.0867982440489,-268.92057940275225,-278.14697169777656
-1753.6671544309222,-281.6884461054489,-303.80201190008825
-1661.8621037765192,-282.5735597783137,-322.04779409890233
-1619.3093462089503,-278.9984347356131,-317.4978203565948
-1591.5220794053016,-259.692147675302,-297.52361917678314
-1544.0746840154388,-263.6098973655632,-261.4776707642264
-1484.5028628532682,-263.61193679798913,-209.56493807773302
-1423.0343695349586,-271.85940152855466,-212.54148970341555
-1371.6304752387412,-279.6418756660022,-172.49927345219828
-1330.9437983409218,-302.5701947148109,-105.09399234193127
-1299.108258171751,-294.8315683745214,-77.17049145222886
-1252.4562414280108,-275.7761315026029,-68.68675847511639
-1169.8184395282794,-225.76516955331334,-28.371360250442304
-1045.882131002942,-137.7371477517807,-26.811908245935157
-922.6015000025494,-65.32047131283365,-40.90805728765685
-737.499553874157,-28.095730958074373,-42.185557759275596
-590.1403639367165,-52.165214420826686,-8.500089225168637
-494.95699346871766,-94.6827917790479,79.41070600052007
-435.30053586086996,-102.38766551268785,135.274533097439
-399.20258192145127,-36.64778492145636,163.06587876593946
-347.4173137615802,9.732049170715792,202.9316841123116
-300.11369835774707,63.708096036872945,223.0812764807554
-183.5570760657309,159.60190279045344,232.35253628915075
-116.54132654882147,193.23520264310443,158.67600046906946
-45.20758872805698,215.36916276200336,100.80006934070249
29.84311666063335,237.43888075948465,39.05594673002504
77.70166162756907,248.0765602932704,-26.981690995395986
138.4570673981431,255.09832613583646,-53.567630128535235
188.2253368887439,208.28723366287167,-52.66426353545809
207.6856010972147,100.05343312956005,-24.535289828840636
202.47179210025854,-16.11528911503929,-39.91995227728124
165.96595167564868,-139.8856898125252,-67.5215287585465
126.7507252731565,-197.68728362896607,-75.76318110669801
51.81718527733732,-209.1386967007082,-123.94242682261527
-0.8769008784855176,-204.54589487745562,-89.42564484304019
-64.36724059694188,-226.70534790167898,-27.508068504535192
-111.78944899634432,-214.06188657696566,46.306740834025895
-230.1010028908955,-243.74786496917912,83.8809379349727
-324.3299189835469,-239.60883686070167,31.435403527198385
-391.2559334737143,-266.4926350996518,-4.797948330979489
-464.7060922945145,-402.14854206074455,-95.70679080012034
-538.1266793451383,-630.4833964707623,-166.67975302473326
-633.2141964891172,-890.1663667001475,-300.6643451127552
-781.9214512601144,-1199.553364298716,-415.6628410313411
-980.3939163730736,-1616.6070982445588,-499.6456486159902
-1285.9743133485954,-1920.6354871439282,-585.6148633835204
-1482.3512616438845,-2020.4860987187267,-674.5606297767332
-1608.9388323229648,-2078.283613670316,-758.6790596177085
-1642.0898064068772,-1996.5329648758752,-731.9788102970944
-1639.0000662815542,-1859.5952746350692,-559.7110124252421
-1559.9720597757646,-1808.4972952027451,-401.71516267022895
-1379.3293326467247,-1754.9519968592742,-312.84791442541547
-1159.3153625346067,-1581.7735924092328,-223.79507782983998
-941.8618998332767,-1405.372884726181,-209.35895540271147
-739.9856220013971,-1232.7553241932771,-199.0679793813382
-561.2028572448288,-1075.4131125307829,-185.14681364176352
-436.2845620063936,-1021.8882085115714,-148.13519397551661
-390.2413158418013,-1025.1614975552304,-41.4695130345225
-327.7214951079115,-1032.1465536141293,96.85223802215845
-260.1683551467627,-1032.1465536141293,156.73344108334652
-179.68113474020183,-1036.73527657253,146.18039799523794
-129.94141730356444,-1029.4952914603866,135.1276939627702
-91.73448629246481,-998.9762049221703,119.89823232194482
-53.418955504683055,-952.9859840006527,104.61880458668354
-26.33641457582355,-918.4094466509971,100.98300642931073
-6.524501231307328,-879.8029908276527,108.99848572142375
20.99391739278959,-821.9463323357111,113.14057297854008
32.55393024121388,-802.7257014372901,109.3237751933637
49.139716416921175,-771.6559681440656,136.93972967323194
58.954688910076335,-768.3204764114148,86.05578867401204
86.44756364303815,-791.5700060673115,106.16877323041
84.81214278066415,-830.5996441190418,67.03012751551243
72.89788051985133,-861.4939862236341,63.0312084146982
88.039442623118,-880.9909602157721,59.39918320731341
95.20131747334719,-900.4971116538268,47.79838171037001
78.99741501940012,-935.3336766377918,31.974731432242407
63.011323948545126,-958.5291613344008,20.039666960684844
49.924286071186394,-981.9948708274488,-19.323418292689148
30.73903932535576,-989.5489285331893,-15.660699627293726
-24.354188229415755,-1016.453121096399,-43.86747768096139
-66.49681593612499,-1019.9303533826537,-36.63779170256918
-82.51074525959427,-1008.3718701085489,-56.539796974502
-103.16876813182893,-1012.43339978484,-96.08174045163231
-106.91316606588387,-1035.5524057654757,-88.2105510036557
-119.78096495745235,-1066.6843417476916,-119.69530879556221
-143.4475585444571,-1085.9467810108447,-131.75855159509112
-186.62540215058152,-1139.889768677377,-143.99718558325222
-237.78150540704527,-1213.1461814177117,-160.21475223445316
-274.18129534550536,-1224.8933121912173,-207.81612477247586
-337.3629119016178,-1247.9694900909078,-247.93074087481455
-391.99318829569734,-1247.7247581997933,-268.3729917963831
-439.134668821667,-1220.5595182860611,-300.56747207252226
-473.5715050501446,-1185.4710833974907,-301.20173555699455
-487.78532934284397,-1169.6042991235543,-270.0718390072043
-480.92467866192845,-1154.4309218744424,-297.49200797418086
-449.3879153431601,-1131.3139553262329,-281.3988467009632
-427.08570204911973,-1131.7014474871644,-304.61166657319274
-377.8629807324622,-1140.0325289471941,-327.3941662035456
-358.65050756374507,-1147.9149352735135,-327.0790738937354
-370.3466525266019,-1186.480602448339,-323.20007341956733
-398.5469043965065,-1205.8959991434385,-354.9540362917001
-414.7512147369387,-1221.4160799049625,-374.7671223098612
-461.34714708896513,-1252.0483549428195,-379.28650456577935
-503.95292989960905,-1263.3570077447448,-383.81098540276247
-542.6501404659084,-1286.270031050359,-384.3137054957606
-569.5155838130249,-1309.2034486802324,-376.78921956019644
-572.6869012353862,-1328.312930511439,-353.2245975944895
-596.2974104306772,-1378.4625738656935,-357.33405393279054
-593.533979493507,-1398.0819138033887,-384.69813850805326
-600.9677106861161,-1417.2627757695036,-372.9714020588071
-600.9136657268283,-1409.523129713001,-372.9968949641315
-604.8487505927101,-1401.7936808186284,-377.00641911356075
-600.1233856617704,-1393.8806830059195,-353.41426481010336
-583.4010594851453,-1362.7691413479631,-321.87240291027007
-523.0093864877405,-1304.645317208221,-258.36957574706963
-485.8743811597233,-1265.6717635482048,-195.15124940728998
-460.11023132262295,-1218.8463950482583,-128.20484059286304
-406.55269638459623,-1152.7076014745098,-41.28361876889662
-369.80110435265874,-1071.3648391652605,2.1632973543462857
-347.4805361667848,-1005.0914430513989,76.84183691678606
-311.41011456511654,-923.9108156200131,100.65598343980872
-278.8393590063886,-811.7165392871165,128.2374715116783
-231.45518602173019,-726.825164556704,144.35918483885936
-180.87114356074707,-638.2648508919968,140.89418914716035
-165.62128759566215,-603.6679192180817,129.2316948193318
-134.00294697985552,-588.2610269561982,149.27625641783894
-130.12190707326153,-584.4217954143363,149.32214364742293
-88.11694105530432,-542.3636002100616,130.18614919467916
-95.41484604834476,-542.201465332198,141.8496632387207
-83.50017590104675,-530.6164694365559,149.83812005118978
-71.09573605665544,-468.70337984938794,161.5893296895474
-44.34103389026834,-403.3150974083913,142.14640065669727
-41.33409472143903,-349.4903968225643,106.68780878281575
-21.822844702319347,-276.2013531634147,98.88412454813826
-17.916209918779604,-210.56527968266434,86.94732655901863
-10.75596661449119,-152.83404628491894,59.387456470864166
27.56037994626096,-145.4625177813015,52.08730810215518
54.479766281043986,-134.09880030387544,48.527580774270525
65.60354453355632,-118.8499640550035,32.94427760754183
46.69086793145468,-126.33570077447449,44.46013674394416
35.212534351689925,-133.94992173678068,48.23849122789128
51.690740466928055,-176.28242060234638,87.87435056823686
44.611156715086196,-183.7895713622899,107.41690587509497
16.76372665487195,-152.9054264198274,75.49836080618765
1.1039447721699054,-129.67629108819017,63.41166453376026
2.63943344567207,-130.28812081597692,-3.2818648570102944
-2.2228589783463266,-138.23476926371393,-30.800222298134432
-11.102568155282386,-130.74597339560404,-66.28012624086718
-27.825098275150026,-142.5410308311197,-101.81234162532569
-76.05675740441437,-173.57813320552893,-153.4499548775576
-172.19233887209194,-266.46612247811436,-240.91815247816535
-286.6126556979193,-393.71548897941705,-293.2234759066552
-407.50205217887867,-583.3816848770988,-408.20769579825935
-551.7572259640143,-846.3073526637538,-515.4471710522962
-723.9934126332643,-1232.8572958145749,-626.6125537262981
-897.2819464343074,-1582.9258717298976,-553.4591323234745
-1086.2323015504787,-1697.3584251502807,-536.2799732834353
-1247.8063354968315,-1869.823028251238,-494.94781602280096
-1382.7963677708497,-2259.854282553166,-530.975409543524
-1381.7766515578714,-2507.75749109023,-561.521008703278
-1279.8968047192468,-2481.0817149587274,-516.9135229665585
-1103.1086048752634,-2253.715590951039,-464.01268526968954
-947.0940637220663,-2065.200654657809,-446.6132675276471
-783.5060902550821,-1973.3344210306275,-413.075820999016
-612.7015851488532,-1854.6088623536073,-399.1444580973116
-520.6385462925668,-1715.3972049578604,-327.5919911488633
-451.7516175248429,-1564.4486139507378,-260.35088434888576
-370.13149240566355,-1421.0051342711324,-157.5716478104144
-336.060734297645,-1308.438661520499,-86.79783616219606
-278.32338260262173,-1215.2162053300567,4.018844355615832
-222.63158163083216,-1161.1304573937073,43.91683194566952
-182.81574237889598,-1114.763961189601,71.82911595702917
-151.44315337041704,-1076.2492798254245,80.01835489183361
-119.99000678111284,-1026.1200307954298,88.16966038351528
-84.87363166830671,-964.4904223154698,88.4877098703431
-72.90542641982736,-906.5491273778508,88.47159835417804
-26.747054294789763,-841.2740334364947,73.24427811739993
10.940637220661491,-768.408172005731,34.31681563021012
46.19314444790016,-706.7428734583167,38.56138436673074
94.97820356594761,-661.1146517924062,-7.9571923133791875
87.84345316698365,-637.7407167585262,3.6309443081990285
92.62378080180288,-622.090112321741,27.197462946062114
111.34587244369894,-641.6849790703247,15.770115176946259
99.32229660485488,-649.43584200517,3.842341676311483
114.84553848663919,-672.6986279718355,12.002569684856706
99.56855807028906,-691.8550167488388,19.687660923964863
83.28226254633337,-699.6792992510185,-4.077671783942529
94.13367459835928,-703.8081301973662,-23.52434317529432
67.10466877068113,-692.0273487888321,-27.89352123304085
47.56507064084066,-711.2561374169569,-32.04600959552957
27.01748303447151,-777.0808583971082,-55.67936043399122
14.939658293097033,-811.87867416498,-63.592154303457356
-16.48738356115493,-838.8246750929218,-75.74584593107738
-55.130345224923914,-873.3114774158354,-72.28380741639603
-82.84072542611392,-881.0113545400317,-92.29594203933047
-106.42472199986746,-907.9828483732979,-100.40747859870599
-130.00871857362097,-915.643976281401,-112.50834892649377
-134.02538073654105,-919.516858458291,-116.48014357604279
-154.1657956590681,-927.3105494740814,-140.30377345984613
-138.86087501848237,-942.905069519153,-140.02131206885124
-170.75046014694112,-1016.3093411103691,-155.95029903177948
-209.8555571984317,-1077.942008738968,-160.25248173433334
-261.47665104801337,-1139.7368112454305,-192.21446671391354
-301.23742562444875,-1178.3636613930344,-220.15163180086984
-368.355146762656,-1193.7103903983523,-264.2767917688508
-407.5713928813612,-1212.891252364467,-280.49741756869065
-400.4099259176172,-1213.084998444933,-296.0878587489102
-380.78854654749586,-1201.5622052382823,-287.9841740043746
-353.7599486063029,-1174.7232745127033,-291.5939693983165
-314.4345928528091,-1178.6797734190575,-267.4440303263602
-281.4161818765838,-1221.8443607144134,-306.05048614970457
-250.83285321694976,-1256.9022041165945,-305.47332677315904
-228.96605874585106,-1299.8832424936143,-332.47337266038863
-252.2767713745265,-1346.086584103644,-328.74223103710244
-275.07048788322214,-1338.1022061560268,-321.26159289869634
-301.6901796230109,-1326.2225122748341,-313.8513151789857
-306.2799222976246,-1314.7914935273516,-337.50567217143475
-291.383907858443,-1330.4849260450817,-349.0039921889738
-280.9144814997986,-1330.852023881754,-380.24299837355267
-253.9674608556439,-1334.9308887336656,-379.8249147262317
-265.69113815625116,-1358.0478552818752,-379.92280748267757
-266.4273732620212,-1365.9608530945839,-399.52991082581724
-286.3760815365084,-1385.2946724926455,-415.4619569373844
-306.37883477028345,-1393.0547128734074,-435.3586596850097
-349.01316963489063,-1388.9248622108469,-443.86105346881965
-367.3802980630491,-1376.9635910326158,-420.6288589885435
-370.989073740778,-1342.1198880351599,-420.8001713123238
-358.2568971055356,-1291.705118465531,-397.231470481765
-348.53288329857804,-1237.191089719731,-350.1746264014725
-323.56003324274855,-1167.391514941392,-310.790127107626
-301.921655203357,-1081.9902821044905,-259.7339560400341
-273.44913910458723,-985.270199303534,-236.08571734486296
-232.59828789647847,-927.0576598532629,-180.7253241422912
-212.02347386722278,-838.0547893521234,-161.09476732625313
-191.03975363656295,-787.5686396475862,-121.70414973512874
-155.86872173474126,-718.1993851111237,-121.41149118200406
-158.0325595386804,-671.4025686651405,-82.35554445197903
-148.60834229833839,-620.8266839338613,-43.13878847516737
-136.09438493267325,-582.0580932326534,-23.458979366042435
-123.03589910927789,-523.8424946337434,7.937165086956301
-123.28165071660558,-500.73266609902475,-3.9183411256647283
-107.10385299771075,-489.074250636048,15.907776865698278
-107.35062432125142,-465.9654418175422,4.05225025875299
-129.3255087109258,-457.77508119490346,35.092411781801125
-140.17732864943687,-453.64625024855593,54.53901179301801
-132.7986621323286,-422.89262898135456,38.847312792849756
-122.00190686931829,-396.1403741338786,11.446416462298544
-107.40670871296518,-377.1552976806555,-15.87127102527367
-91.91161099865909,-346.3588483325091,-19.667674486190496
-84.8600694426741,-304.10180846670374,-47.176966650181264
-66.38413729459091,-281.2775004716188,-74.44958268113984
-58.73239077564715,-250.4555582181479,-82.28814121030118
-38.92001855883508,-231.1584486037536,-70.28261434842685
-72.70189106371697,-199.76954413586702,-51.27143316015154
-61.19633106106571,-188.28651986152255,-55.06243212513957
-49.47163404424549,-223.0924933590982,-42.995518347243966
-76.47218978958158,-265.37094726537606,-35.408115921339096
-87.97785176385413,-276.85397153972053,-31.61711695635105
-123.01244563637941,-307.5698633070417,-35.96294351282039
-174.33476263555855,-307.4913451586424,-72.0535554955056
-247.98580555031535,-349.51588972788875,-76.93962770161065
-326.2816558151867,-368.538695680992,-109.44512142270808
-478.0929267384887,-448.86072206105047,-138.92103827504806
-646.1064685697971,-564.0182937088609,-184.21989160416658
-848.5466494674533,-745.4941289839039,-320.076682659216
-1003.0571092065079,-841.9409278397823,-424.1060912747983
-1044.7094573580175,-910.9430845395726,-389.17571239923933
-1052.4491034145199,-987.1332208246446,-263.44674277148675
-1193.067969184176,-992.2695313894145,-96.77698296564067
-1459.835927661332,-902.4835188367077,189.34600500680662
-1711.4407060515061,-856.3607348075033,365.95473479730595
-1855.6897615393639,-873.9926478461045,430.57109206507835
-1896.111312221809,-870.3053540199763,375.00879505233695
-1871.291419597926,-809.2631020786916,300.6072410048284
-1875.5130447196545,-791.0142607312386,174.89458683648343
-1830.2478420255643,-781.0261404251198,34.25236956554991
-1748.0077294488945,-755.2844243447049,-43.095042649630614
-1629.7512402298441,-656.0986677407678,-96.60291740808535
-1535.6926167447602,-490.35501419954835,-83.97923857790379
-1470.4715677626918,-331.59743643344063,-12.894719399591096
-1449.0473301280256,-199.90210724355413,22.303436953495844
-1416.03911631393,-180.28378702207178,81.60105642599665
-1395.6549892165012,-253.52796316785043,129.24902999495242
-1347.6059612609813,-346.1181953062463,200.92386288895804
-1297.537895203765,-446.9212218239664,221.6373583231787
-1200.195785512892,-516.9257595611142,266.5028322617816
-1078.1663463058233,-583.8517740512816,245.00823420841982
-969.3116405704293,-584.4452488872347,274.11297435923586
-877.5392208348418,-550.5804734542378,247.90116910463823
-813.122727944813,-474.12215180515267,201.51325886005927
-746.5434169670582,-405.8419541841506,108.08889885944743
-746.3812820891947,-344.01044189402097,100.03344669178568
-712.218749522008,-321.2371197095848,80.84524276893741
-708.0368933325856,-332.77011007836524,92.72065384203577
-708.337709615414,-336.707234376673,84.88025982369108
-688.4970912595026,-332.8506676591905,100.86288385942193
-704.5647596273958,-367.65256229191425,88.96575283098714
-704.4556499926072,-390.79706117787424,96.89465821661832
-703.8550371431631,-402.23215879020876,116.56579973793293
-718.8326288793829,-417.45040355269134,132.0909790805219
-734.0009075474296,-401.8222328725916,135.73544482570503
-742.25347085906,-401.8997313047779,119.91352806513949
-777.370457801594,-424.91268679926384,111.61609724013809
-784.340218117298,-436.2539705200044,135.09812219259382
-818.0397995237927,-451.1877144590661,166.0403909591961
-832.5534203831074,-458.5663809761744,193.31983908878163
-869.206099942386,-461.65918025013644,247.725777916006
-934.1691607225711,-480.3261052449104,266.43960985657696
-956.4173290573235,-472.2050853247542,289.62591710726906
-987.3810118643983,-510.61983450005863,293.21633789316434
-1002.9592164500621,-495.09465515746973,285.0820616622394
-1010.5571219529606,-479.559278652751,284.915847919524
-1057.2111781291267,-440.6866768978193,264.46238011961276
-1147.1705424380395,-436.47524893822055,223.85422137019273
-1238.3229747161367,-419.97828004466356,257.7546868706439
-1323.8057848500764,-442.6730840807004,240.85289064053475
-1382.1029607460246,-415.31613751892854,220.26380058429743
-1432.252604100279,-384.0485792803863,211.55848327410482
-1476.518484905651,-399.6410598930318,159.9271922623934
-1515.2677009988122,-391.67401712103526,151.47068570816742
-1515.2167151881633,-403.2457567059088,155.43534234422563
-1503.0515007673366,-414.77058934498535,175.28003956498907
-1488.1840383821184,-434.33588432339286,163.7939561420057
-1433.5578408528909,-415.27228972177045,180.24707723840456
-1415.11117456012,-415.6261312476738,156.97715325824825
-1388.4863842392665,-408.19953806855557,145.576725997155
-1377.962912921334,-420.1342966252493,118.30237644863436
-1350.614124089266,-404.7987844982742,126.50905253068072
-1350.940433277419,-412.6047121086202,118.68171087986214
-1343.639265192497,-412.7668469864837,107.01717711960762
-1339.2646826388218,-416.52858009615926,122.79422636680212
-1335.7976475146968,-393.48299368285814,107.07020236268248
-1367.388455792753,-366.40340993101626,79.03310508685433
-1352.2966558406797,-316.39958599521754,59.46719827871904
-1383.3980003365066,-277.61162068596315,43.17203122371045
-1365.2776432318888,-227.84335119536235,0.10475442684300959
-1311.2224867819289,-193.47585566936723,-3.1260828111536565
-1246.2359725288452,-151.63078115360497,-25.841444326044062
-1176.7932984250485,-140.5597222293036,-24.83865540220157
-1107.4322016182898,-102.47638082321691,-31.777416345031185
-1064.6347121596061,-83.39208598247109,-23.35150127719456
-990.8735398938477,-25.892328165071664,-18.51600699525322
-943.7055467463406,8.740069238730863,1.6968485670437918
-899.6272937241566,55.17949554638945,41.44667139135179
-868.4453916475047,47.306572580850755,53.714163348340165
-825.7570118236097,50.91636797479262,62.190656340340496
-791.0489310824798,35.20794562873153,66.68811469767964
-768.6906333967258,-15.366613471470892,55.41984265778835
-734.9624999362678,-54.49271667694881,36.433848459973596
-704.8431421535387,-78.07987437096257,21.2661816216547
-690.2744566187231,-120.89143591338532,5.930322791167219
-672.0969954061786,-159.93331055967127,-17.213421504795217
-656.5463231582651,-160.01794700534842,-13.055528646377715
-660.4538756863966,-187.03532806819865,-9.098346530160658
-652.7478802649224,-148.47577919065125,-16.962265401538755
-640.9150933295265,-129.18682730596078,-12.925412857601732
-645.096949518949,-98.34428678498774,-28.790565585597534
-641.7349451647607,-71.46395558116177,-48.454059235314816
-641.8980997588372,-75.36691938633479,-52.367934003966695
-696.5824211122047,-82.85877440308363,-72.78489596345338
-708.3060984128118,-105.98216516343504,-72.88248280503537
-793.9816349110043,-136.4482264585766,-93.68612115248327
-864.0524542019956,-139.95197136636875,-114.34689725849297
-926.0613971131835,-189.76918723519248,-115.1076055533745
-987.3891695941021,-220.10676428749883,-100.22556122631073
-1069.3763925499534,-254.50485129988326,-124.88566431961986
-1124.1453503489981,-273.6031162527469,-145.26469283598377
-1170.0529742572644,-284.7496341768086,-134.14060866860754
-1215.583303166729,-280.3526178664478,-115.21467575573719
-1235.5595437789664,-284.24385493517156,-135.12361509791828
-1285.7703701059995,-280.02222981344295,-139.81430967761673
-1263.2754304477066,-311.25307826831795,-151.14641595244046
-1216.0217811383095,-322.94310493389696,-119.00190177073723
-1170.2467203377303,-311.83125736107644,-134.05189335807847
-1192.9252089143592,-326.99035858320633,-118.64194194755602
-1254.4242937190581,-341.9210433736292,-111.66402390214806
-1344.200109109635,-363.7001422504117,-30.51816879362474
-1376.270184007791,-339.60526785395626,39.56345948922416
-1405.3524904019214,-323.4815150943493,86.16887520203129
-1400.8453447405589,-288.5898854348835,97.89255250263852
-1360.372808247465,-265.23022642798514,149.44043072812838
-1344.577404108437,-269.11534519943103,161.46390459535112
-1324.1932770110081,-226.50344409150935,185.17332626330094
-1262.1333482891712,-91.71093084794502,169.94896320354047
-1193.8837421545586,0.15814982690317286,119.64126383627439
-1105.7496698668763,45.69317758867708,97.2604304222135
-1010.4786038045612,87.16320048130606,59.301392422488824
-967.6546017243402,110.11711440706053,67.71466300928452
-916.9053652368548,125.34147746682099,84.12199884772069
-897.1463241779813,98.28269592572389,104.13239995309307
-826.5829819561217,16.94849923266355,156.48361061116694
-783.3205019043202,-71.98319507681013,200.60265228186998
-741.9761080491301,-117.91896315255467,291.64291577653944
-698.0059449455218,-125.57295304716698,339.4227386518332
-670.7315953970011,-121.8438508563067,347.6681639499728
-659.3627793385102,-110.3954969332035,339.9509516501558
-648.6200690347877,-110.69019491875412,316.56478002171997
-631.3980819138035,-111.3519907409768,257.95557096460055
-644.8389613170656,-165.80075764914628,214.76753019634637
-653.6625657079635,-227.81275970897303,195.22160982598544
-700.8580911932211,-285.62251125511773,179.01118118827534
-744.5539506355383,-316.518892792136,147.0634722356768
-759.6957166820475,-316.33126500894804,154.68585092768686
-798.2562852758078,-339.2116573957468,158.11005797086673
-817.2515588911607,-319.6851116334325,161.68416329735436
-848.8709192231802,-296.47433119362887,133.65930261608196
-868.0833923918975,-307.89719221140757,137.3353795638674
-924.794909576665,-287.86792635609515,163.88980946602564
-966.9377412266167,-291.34107977749795,171.11959741603914
-1004.898716687146,-306.3472235676811,190.2250003823936
-1054.0092692203762,-321.1616607098245,220.93579356864987
-1056.8542774545845,-332.46521493068485,252.32877690138835
-1064.9406270234995,-347.9485859085417,244.41068050761479
-1064.2064313501553,-378.65937909479794,271.9970632173067
-1018.2386441853233,-379.08460075560976,264.8386554022016
-1016.9293285678598,-386.4795827321257,304.12934080445416
-1005.5870251309062,-398.2093783300108,300.41349492436257
-1051.5823446334887,-382.3436137722872,303.5960292250667
-1120.9230471159876,-358.6290935232725,298.5525128356779
-1175.3045127541006,-342.87447803276353,281.9862032396384
-1213.8395884425368,-303.9580284806739,273.4287447803277
-1280.304691204438,-265.0731901311865,236.98000846364462
-1376.341564142699,-260.39269271361786,243.37566855144215
-1522.6402492186426,-259.2271570821841,245.10510724865273
-1595.3562123660986,-227.64348681761868,251.75773582212074
-1629.4147338795615,-234.94261547011467,270.89576970729047
-1586.4846813131908,-235.13330240194156,287.2377417364748
-1516.950232750226,-251.07452595942553,296.18269235671715
-1505.8251288666365,-274.44540184466666,288.5786685565408
-1506.7020848097977,-282.38797142755175,265.04463807722317
-1522.4668974624365,-293.94339555301764,256.99805744061433
-1545.8082015775012,-305.40500578688955,252.76215629190398
-1590.0842795450028,-301.688140190585,197.14275517123588
-1618.5547562113466,-282.54602744056336,149.5556586601949
-1627.028597941193,-274.95424023494263,125.85541443816189
-1590.0434908964837,-264.0565330668475,79.27722514824126
-1555.5770828978298,-256.6554327930537,71.91925887025641
-1545.4105122544397,-241.64622985423162,28.85011701243544
-1512.504270061642,-223.04864556194013,-25.664421591471097
-1474.70339004655,-211.94597543503644,-48.68339341161355
-1398.5101946128395,-201.17369336113762,-75.05070538869033
-1317.4223613568345,-197.89632545262657,-69.92255255362434
-1255.7091361474102,-190.63492630001073,-69.02275496729261
-1213.921165739575,-179.52715759204216,-88.05738962846641
-1178.0475493670112,-144.7364798376612,-60.16488811163854
-1127.5104138518252,-121.84283114009374,-51.63598170629115
-1076.789729418303,-129.7955978851086,-31.226259731916613
-1057.6394589385775,-126.11034349140635,-34.87633391627111
-1036.9188254908659,-114.31120719103875,4.640279810128842
-998.5520029775715,-99.20176614848089,-2.6851779149862596
-963.1892644277099,-79.98919100814244,13.478201016657065
-932.1705169451343,-72.4555276266615,17.84197457847481
-894.4542733757196,-53.64890151070958,-9.128815650604437
-836.2162410201242,-30.814498325116123,-0.48425711124594034
-801.3990506442059,-50.357563490080715,7.95245063298884
-743.7881437595918,-39.26611024151979,0.9287503887668064
-716.705500859111,-23.999530930542033,1.2829253618717913
-682.9243421555782,-16.76933509404333,-25.70775953052266
-636.7097836672056,-20.995141052245163,-25.00130013817155
-590.6043348136214,-21.386406163164793,-28.234004476554176
-568.0839022500039,-29.439207068672793,-43.56798702920978
-552.5872749613783,-56.570898318997834,-35.395063553812975
-534.3292561680086,-26.07771257259105,-70.54600704623904
-522.7962657992281,-30.03574105326488,-70.35990883737057
-537.8829671702366,-22.110812560864314,-62.76343093717019
-546.0814855225791,-14.450704368974117,-78.61053468819628
-577.181810302193,-14.28102359113459,-86.92621843340999
-631.2114738468285,-25.47067551100529,-87.6977357201491
-673.4909474693194,-28.97778548230028,-84.39456899144969
-730.473709166739,-66.94508318335008,-53.72313685101437
-776.3599190345327,-74.22279779537355,-42.612003079542966
-795.4092376091735,-81.74310289446447,-35.02276516445473
-825.2002467713236,-88.96891395124737,-4.0476819301188485
-851.656783917036,-92.49244135357131,11.26643655070794
-908.9678942350346,-80.3373221232531,22.140792217525863
-944.8761809588392,-99.68684515099449,-9.728765684510002
-960.4258334905396,-118.91114702778219,-9.896835310733024
-997.324264657146,-118.20346397597551,36.643502113361855
-1063.0541520294903,-110.02839909653144,27.78216822258366
-1178.7613507160959,-105.30099473316578,22.108365241953166
-1317.0552635201625,-80.94925382266116,27.803990149541388
-1414.3973732110355,-107.49134515864236,2.887652766235157
-1407.9731610692745,-115.59604961939094,-32.31032003793345
-1346.1273727521632,-146.91969224964694,-19.504417920492727
-1319.01311864908,-166.40340993101623,-11.183329679350239
-1332.8506676591905,-173.6107641243442,35.72922455680584
-1423.5850162899667,-176.32116981843956,85.39929537609684
-1553.629424931042,-185.65463231582655,224.76890681323388
-1701.3251212187652,-203.15398224674075,301.1079216654005
-1796.1077432150637,-232.91439992250162,350.8088898859448
-1847.450454538502,-198.08599266824046,306.7510311880204
-1796.7297701049802,-114.34791697470595,197.33956040034062
-1716.529089954266,-11.881121483891036,45.134882962071664
-1646.9742470670415,9.808170986014593,-63.78569644068056
-1590.6655177864002,-29.63325906400249,-98.13086018161148
-1542.4941238853228,-83.57094420622742,-30.508685432844043
-1454.6353749751447,-91.176395609102,61.09925407759022
-1339.6419776376235,-37.1588666874009,145.05667072853626
-1220.977601933382,28.36656758424131,221.18052545976457
-1121.1269903585833,101.88086655483781,308.77006928971673
-1045.2703012751554,148.32180204249158,376.4680089531084
-983.9935146048856,112.99271412765827,373.5801726379549
-923.6732217423892,38.80581034298155,351.1872046009596
-872.2591302840422,-31.760896942380942,293.325447527953
-837.4674328134481,-113.10080404623395,313.744244976623
-802.3677810465349,-156.74159881305033,224.1509587881693
-776.6199466688421,-215.18561384366734,201.18592995569335
-743.8462675837316,-254.55073852946728,154.71440298165024
-713.891084111292,-282.04126791513926,135.63245348819424
-710.0906017855232,-328.42713872729223,143.69534958421073
-694.5409492538228,-347.82112138191945,151.84288212590437
-691.3686121152484,-367.33135168482613,136.25753952674972
-656.550402023117,-367.5648666975981,140.70452193154645
-648.9800288579689,-386.9680267981421,140.88399198503058
-633.6475758796328,-379.38439732222525,137.16304752387413
-670.7917586535668,-374.8752122284369,175.83782433348802
-700.8295391392577,-358.9921124950926,194.95750332682417
-749.4516476064713,-342.7878021546604,233.42017916413866
-817.3688262556533,-330.3044362753846,271.60753162394906
-1007.5326436652681,-339.7725013128847,343.35884323392804
-1056.9970377244015,-327.6429769595122,358.2752519973692
-1137.3506753070624,-303.7030994274294,368.76507268027314
-1234.3970672961716,-268.38012980987395,339.71947606980984
-1350.8996446289,-240.6795388843285,306.4838655402202
-1434.200262067067,-209.75460529334688,230.56395405158747
-1399.6522767713745,-210.0574610086013,227.1581019002412
-1395.3388771904781,-240.8651272350905,246.94977387792977
-1461.5286565748754,-259.8400065261838,230.3233010253247
-1523.8333171878269,-274.9756542754152,213.74271540230356
-1531.3282313532147,-282.5857963728695,221.50581493170452
-1503.6633304951235,-301.9318523654867,245.53338805810344
-1476.9671600393613,-321.51856138436676,242.07451066368233
-1499.6456486159905,-336.67766260649665,257.48446207420477
-1507.8441669683327,-348.32690062355647,245.62720194969745
-1540.31193118955,-329.18988645459973,194.05607419455168
-1588.0550442811766,-329.2092610626463,150.1695278204076
-1643.0891282955954,-329.0665007928294,117.94853492273101
-1674.2210642778118,-313.4556652883503,105.6558559752821
-1709.1463445723057,-309.38801731478134,97.26919998164512
-1728.1946434307335,-278.2887122513805,96.87895458693846
-1709.6663998409247,-247.72781734843198,69.58104959389803
-1686.3556872122492,-201.51529829248523,65.8497040273692
-1666.4100380864006,-162.8741721178996,77.7920084840389
-1693.1368000285522,-127.84793991832075,77.27348278973962
-1685.2136050537138,-116.26702288753042,81.27770441486136
-1620.3902453947067,-78.32491217694117,54.648427342670544
-1528.258885552151,-71.40420021108126,44.23121045413062
-1390.0465500451226,-49.43410848760791,26.604192053351557
-1270.7295559645752,-50.390806238623796,24.470129962831347
-1182.6158780011524,-66.65262857346801,14.070962051261136
-1094.48180571347,-79.04585153951656,3.659159855812128
-1041.3749853415795,-83.53637582660747,-19.077972600225362
-994.8891823405547,-87.69375882691848,-10.518372736867331
-948.2932499885284,-95.6856826745117,1.9804112515486942
-933.2881259145581,-95.90736897921309,-9.567946240561252
-902.4060204045214,-107.71772215792345,-5.1408890905660956
-883.765608031285,-119.60863291745909,-20.520055268618744
-846.020812407907,-135.55291562358198,-39.523996471781906
-826.3719007000352,-139.46760616520424,-27.44260272366201
-819.7559819102344,-120.49170715789796,-62.72906650079283
-772.9153176670934,-93.66460514038944,-50.34410323606941
-734.5719486266972,-101.73382347692639,-53.667154430921876
-692.402604355208,-75.08272447777784,-64.89922654525246
-679.5327660312137,-63.25799330046449,-29.424829070069805
-659.7217194454785,-24.651129590634927,-21.409043863092904
-629.2750327583834,-21.123013465352596,-32.738702819005475
-631.5744928186487,-12.97955978851086,10.370207971121637
-586.0156118552208,5.801705985224313,-12.558518964172272
-585.5251283567784,17.510464837635688,-0.8167671936899962
-586.0431441929711,40.55176844284236,-20.52535779292623
-570.9023978626749,59.67379278346837,-32.1369682817272
-590.1424033691425,44.38192451040876,-28.448960654249923
-583.6621068356677,44.01452075887281,-63.67220202617613
-605.2015724024004,36.86610616265494,-16.875283608571735
-634.9650492268003,14.199650237338952,18.076917193944926
-653.4147746682098,14.553593734863588,41.347147088965144
-745.351368714087,-3.9048196886806408,59.655335920013464
-811.5972324901982,8.001988446615309,35.0751785778018
-848.8495051827077,-2.964580157342212,73.8003293683368
-891.5919299658906,-14.311819020766523,65.34912533841832
-940.5413673374702,-25.223292357736845,99.97430315143296
-1041.35459101732,-36.192685575604315,82.80269001136985
-1079.6755263010305,-43.56411210760046,90.10283838007884
-1086.9970887102122,-27.96133236120388,97.78976510837035
-1102.2724375806215,-27.808069014393297,101.48501272095977
-1146.3547694676572,-54.93802674715627,57.74540745310581
-1186.8578974471404,-101.47563133180037,10.200425221660813
-1195.9741603911634,-148.11479965125707,-21.175936736806147
-1242.7077544319418,-159.46628053412738,-33.611477925693286
-1349.1559299047078,-185.3038499385621,11.976566921425768
-1482.065741104251,-195.35519264988557,68.8889682001499
-1631.3114060357004,-240.27777069641525,106.05150586591753
-1746.4781551294275,-293.34176298736065,128.05290287712933
-1807.8038881779203,-362.29701274135414,150.91494037209446
-1841.8930011777725,-392.77429091483845,174.05434067698963
-1804.0309381899021,-412.5516868655454,158.99007306266668
-1719.7004073766273,-378.55944690592617,140.51587443214555
-1627.9769340192627,-333.1219121718426,110.33941254148972
-1560.3901434230854,-295.4841867508273,52.35508557968318
-1480.3118292179288,-242.25398071716646,18.053463721046434
-1387.3646964049906,-177.20016519402654,19.22623933759235
-1316.0967302799631,-119.32821095889015,63.26931215042855
-1218.346734103899,-34.75549754503322,87.99600271244513
-1154.9407799809314,-0.036802985729071605,131.9992046213539
-1078.2887122513807,23.43103914180684,227.259053805326
-1007.8681302993378,57.91916709579724,251.745499227565
-949.3843463364148,57.64384371829321,272.24587397327326
-914.3754493124565,26.56309748996854,288.5735699754759
-846.6764899328518,2.438875660903571,246.4980395955806
-832.5156908832273,-40.47549367011161,219.38276577628446
-806.52312461442,-64.10140058021852,196.303528727955
-788.9452565351064,-111.01650410690706,157.4788536350334
-766.833730172893,-138.48154058725459,134.3557687895459
-760.9520070564363,-204.6519453636053,95.42045448751614
-772.6756843570435,-247.0843764180429,99.3126093008316
-776.8004364385392,-285.74181805203614,99.38123620196501
-785.1335573309949,-336.04339912202437,91.57694013755972
-793.1403690352976,-359.2307260889295,87.61054998393948
-788.1407004430669,-370.5587534989013,123.04507655519471
-816.2869073536835,-420.84911769054673,99.24561394563894
-814.7318401288923,-432.04458199283147,146.40167641345417
-825.3929731355765,-439.45383999632907,173.73924836717944
-884.9749914598768,-453.9052581666523,235.69006745422752
-935.2062121111695,-453.5524363569619,231.0116094690848
-971.6151794955465,-402.5166596136296,281.314210255286
-1001.4347407116601,-355.6831333839793,300.33293734353737
-1053.6115798973146,-335.51314669127584,346.57808731829937
-1076.840715228952,-331.49954367699473,342.2922200751531
-1190.671636083678,-368.78138813968076,399.58191635267906
-1274.7370406815785,-344.77726848618033,413.9405403476213
-1326.3346810582616,-344.76707132405056,369.99688986555043
-1355.0294952914605,-317.9556729362219,314.532485609255
-1379.0234177828313,-306.4104459728858,286.66160207614223
-1448.6802322913534,-290.50287305043014,273.79074403593484
-1483.3913721811223,-294.1034909984552,273.28292536187183
-1490.3866254021507,-290.0042318222839,292.78703736750066
-1470.655116681028,-282.31353214400434,304.830905558983
-1458.8773944211327,-251.45284067444032,304.90228569389143
-1455.4919365940461,-220.70431798830387,285.2268613644823
-1459.754350364294,-240.08606404837536,277.3791253894042
-1457.347820101666,-252.06365068601414,238.20978621649598
-1498.1670601071723,-287.0980406152968,178.84700687798588
-1564.907486246578,-286.9002156699791,142.5247153717121
-1655.0911881223456,-294.3288482815233,98.02817475896458
-1705.679309448181,-247.7227187673671,73.56548872448799
-1752.4332978132188,-224.32431054437555,53.16300673522559
-1776.4068259803298,-208.91028026900113,25.279682664314524
-1726.1959996532967,-174.51321297282968,21.990995905839405
-1667.9905982165164,-174.85685733660324,34.637924265676865
-1598.1604319517878,-148.2432838940923,43.44327573636257
-1524.0168661061628,-133.12803046912046,68.05065950146074
-1419.648911707872,-126.12563923460101,77.43959456083373
-1326.2429065990937,-111.16028409293693,102.33565998582597
-1223.0986116563763,-104.46482743852388,76.38612574120623
-1161.5791325274176,-104.97570526122581,73.384693039927
-1097.3472082719381,-113.52704542325873,39.05400926922038
-1059.740074337312,-129.5039590481969,16.12354881636441
-1021.9187999979606,-114.53248560925496,-6.908077681981106
-996.1974782418055,-118.91726532506004,-41.829574829325004
-965.0971534621916,-119.08653821641438,-33.51389108411129
-954.3819754962195,-123.25003951400326,-56.88711231664229
-942.7949401681514,-119.47097122870707,-56.72630306985567
-923.7721342150481,-115.8193674700331,-64.30289650390297
-908.3315913181364,-112.06987095491326,-64.0842693478405
-877.0681119444461,-89.02673186052323,-55.844452488872356
-865.698276169742,-96.88762217474877,-59.572229048655764
-823.8287284648684,-93.48299368285807,-74.65505549805489
-795.710053892002,-66.37077901220091,-46.85300280931818
-776.4700483855344,-51.07891073914131,-50.541010436795446
-753.894551146416,-32.084860783244025,-69.89002360643033
-734.3282364517955,-28.296513080409728,-61.7604380700851
-719.9227055110564,-17.082999801155342,-92.97945781688956
-681.1439176477187,-1.8714647713541324,-88.52533739860199
-677.2904100788751,-1.9012200904488283,-88.46751948932612
-673.4369025100316,-1.930975409543524,-88.40970158005028
-677.3169227004126,-5.76994182519005,-88.45487500828521
-677.9450678876069,1.7964850382138655,-108.1133720485589
-673.3818378345308,-13.502980120632431,-84.44514691561339
-727.3839690414159,-40.13317493741492,-81.23966900011727
-727.520611013955,-20.85798922159963,-89.15592990470753
-738.9720240856971,-24.603202928624967,-85.39021990180134
-753.8129738493778,-20.47865479037184,-69.92795704955311
-776.7973772899003,-20.265941988344647,-66.3483452555154
-808.4167376219199,-16.364405785869796,-90.38285245216257
-833.9718456353598,-27.386008473841734,-47.55762671248592
-845.2050394375245,-38.80030387543147,-35.91358924811225
-937.1426531996146,-57.25879887627274,-17.605298445442635
-1039.5802848067385,-79.22297624571084,31.954541051225448
-1154.685850927687,-105.24083147660008,49.94111138870053
-1251.0286387298415,-65.87764425160479,40.515976403766835
-1332.5753442816865,-96.3051602738958,27.6232964366017
-1356.2939433955532,-84.69151035266886,7.605665543279306
-1329.6181672640505,-69.52751449271669,-3.819805948004671
-1321.694972289212,-96.56539185144776,8.163990761371112
-1362.9424931041692,-126.84555888096344,46.89460723080767
-1476.4165132843532,-133.14332621231512,108.01038071104813
-1585.4649651002128,-116.15587382031582,180.88745902015472
-1691.9233377351084,-84.06489473979393,214.50546312961106
-1761.4985749465925,-95.16960429912356,209.57615495607575
-1800.8494236054107,-95.07721801022777,185.4384524786752
-1773.1029454502816,-126.98322056971546,103.54504341441779
-1704.883930802058,-116.2211356579464,69.20895514778238
-1635.0333702130697,-85.7380451020481,78.00176410904845
-1545.3391321195313,-51.39879571515248,102.7771971060454
-1474.8359531542374,-5.304461768289886,127.22591302840421
-1387.7113999174032,37.109920309177966,187.25660648641485
-1282.1503775499282,79.17025691749987,224.01737596426918
-1187.530910147706,71.26592669260145,288.2554185170268
-1078.6048242774038,62.96890375408525,321.3125787093452
-1027.4150703859118,62.85571525444469,353.476467499095
-959.0084279545003,23.46183457143877,335.0104265982778
-921.0454130615451,-19.46006026522819,327.87445253985817
-860.8342298338374,-70.50317896529397,297.5521712307465
-832.3504968567249,-133.11987273941665,243.24514487618097
-800.09585332402,-168.75283608571738,181.0546924790831
-786.1257412062223,-219.43885016799825,150.03798442893344
-772.3208231149272,-235.4096454956586,107.12730647060924
-757.588982986035,-255.00859110909434,91.71613140063121
-750.154232077213,-274.4464215608796,87.96847037469473
-746.7636756690614,-282.3165912926433,76.2719175253527
-770.5383591746418,-297.74897645985124,60.26930705184748
-786.470405286209,-313.2078742485967,48.30895361820806
-802.0475901556598,-336.3013873239078,48.153548867350224
-828.8569491110626,-370.8085839710809,59.642283552487356
-866.2733961138617,-385.67808578872507,94.45355957437046
-900.9814768549915,-389.2787037367501,93.94584287192875
-933.5899619135996,-384.6298175217837,152.31093186766125
-967.0723437667298,-368.6131349645394,183.1522487291787
-971.1981155644386,-368.6518841806326,175.24129034889592
-980.5224006159089,-360.2779746396578,237.8671615689354
-1010.1502551839825,-363.60021006153994,272.7567517959752
-1055.2431258380793,-374.5417650267931,307.4393396317805
-1085.7734292546386,-389.67639305981146,318.80713597405844
-1062.187393248459,-343.39555301759526,322.92882890691527
-1074.8930572621641,-351.3177282762208,291.36861211524837
-1129.0603824955517,-362.5417446324688,286.66975980584607
-1211.5962127739851,-397.07749333360533,246.30429351511478
-1282.3951094410427,-427.79950339820437,210.025849805999
-1294.5603238618694,-416.2746707591278,190.18115258523557
-1317.6568960858194,-412.2274171098184,189.82221247826732
-1418.6903784676726,-396.2178725660649,160.78273416508188
-1537.4669229553417,-395.1247367857526,178.62266931113072
-1583.0278433511955,-375.28717757847994,193.57170899338718
-1539.9856220013971,-340.69330505320374,205.87356538675292
-1450.8114391764775,-302.6222002416728,214.92966507420988
-1380.9812729117489,-314.62731921706194,231.71521365603954
-1365.736515527729,-337.9584261699969,232.0221482361459
-1377.8099554893874,-334.1375495199686,216.1298710568849
-1420.3627130569564,-337.71267456266924,211.57989731457738
-1470.186047223058,-337.25788113168113,218.68120102175567
-1521.37580111455,-337.1446926320405,186.51731223200585
-1567.9156490748626,-360.0342624647561,181.97243707076322
-1611.2535881264246,-359.94656687044,153.85070334925794
-1608.4901571892544,-360.24942258569445,122.49646923261257
-1621.0632580952722,-329.5182350751786,86.88267655111584
-1622.3175090372351,-314.38564647458617,47.56660021516013
-1597.334461819276,-249.4409405862349,-22.92138497856047
-1539.7510872724122,-222.90894444076216,-33.92228742740896
-1449.9752718818354,-196.2729372415657,-5.1950258243130945
-1403.1906920304082,-157.8745035256688,3.225494944756875
-1349.2986901745246,-127.40946194674024,-3.9192486730942786
-1332.2490350935336,-88.49933463517105,35.451045973905465
-1305.9607511229626,-69.56922088582748,12.233331463853611
-1297.8642043919178,-34.775993840914076,16.161686202729783
-1259.0843968123672,-0.2550483600414005,16.62616693774123
-1221.395685580703,14.68289375066919,-10.332070584756263
-1191.089719730999,37.48609362014552,-29.578092416880384
-1160.131135504989,37.28225234917123,-25.188927921359486
-1099.152105968909,36.635140440415434,-43.89653959303127
-1068.4892394446629,13.184726690562018,-43.35812943257892
-1017.9031575512536,5.197299791468035,-26.874926707897192
-1002.0792013582621,-14.12857601729439,-10.874253695196629
-944.0318559344936,-18.375184186240972,-2.141200104011054
-920.2296400911627,-18.382730086217006,17.838507543350687
-859.0925545420711,-15.12687818979978,3.044780837492926
-821.9208394303866,-15.766546170200835,-35.64244670708142
-749.278295850265,-1.028006505789439,-54.22718257508936
-706.864219687661,21.822844702319347,-57.59357170899339
-664.6938556999588,9.855108523297968,-60.84616051352909
-626.6227508884277,21.026854226468775,-76.01199186266463
-591.64138620222,24.696201047248554,-67.651134689216
-579.2090061335931,32.54964743311937,-43.94375245369214
-561.1967389475509,47.53366338148094,-82.97063727164732
-552.8075336633816,47.645220335180724,-63.22230323301026
-568.1124543039673,43.92968036995305,-59.51441113937992
-537.584190319834,39.75455430753622,-66.89226188351783
-556.7150861915129,20.628145187194406,-59.26509052530682
-559.8598909923369,24.697628649946722,-39.70275272391694
-563.4401146161024,24.795725349635198,-31.907532133807166
-602.4932061407311,9.515828544915951,-44.21479302310168
-647.7522905375436,-5.328363916322088,-13.44567206946307
-700.3094838706388,-20.010401105372377,28.98737081470227
-799.5982318120867,-65.35361208975543,62.97471613649922
-929.8527019930356,-91.18353362259285,88.58305333625653
-1071.7727256504515,-113.08958716789118,110.07836519096736
-1167.707626967415,-92.93367255892686,116.42303946811604
-1245.5935513146692,-92.54383505070541,91.7074638128209
-1277.3679085110616,-92.54516068178226,63.75908184752184
-1293.469227513983,-92.59716620864414,43.895010018711794
-1305.5426674756418,-108.0858397108085,31.992474494348226
-1342.8030978978552,-119.05186786517314,70.71772725650452
-1455.9712032141456,-121.41251089821704,139.67358884022576
-1611.1822079915162,-111.77109410451074,215.80866044979683
-1759.4285510342474,-110.09773979901395,272.45185664829484
-1866.2336271815557,-89.68098178276986,298.2557754177013
-1926.0807717212303,-70.43832501414857,234.50005863368224
-1905.6864474616718,-13.372660388613852,144.34694824430363
-1853.9460468151717,39.7229431049339,70.37469472245874
-1809.4762227672043,58.230690398862,16.033711818001052
-1753.0655218652653,34.26409630199915,-18.362029847093556
-1675.832215894317,-1.0468916500537901,-5.312150428535739
-1588.1366215782148,-56.03024478287693,-19.51145396236228
-1464.3328761605649,-83.89246072817936,2.060112270755049
-1342.8846751948934,-92.03927946852392,62.77607541821112
-1252.6397903463467,-76.872632346418,107.24763298374063
-1161.854455904922,-80.8784855174805,171.41429540158975
-1080.0120326513133,-85.13263958640312,200.12746452662228
-1041.5789285841752,-139.52369055691804,208.73590879658195
-965.0849168676358,-202.0526887367246,206.1682633723035
-904.7921563428899,-241.49021327364596,175.80723284709867
-840.6734205870507,-284.825093176569,145.5165627405893
-815.4160697078005,-316.3598170629114,102.83124206533323
-793.3861206426252,-336.12089755421067,75.75502337699419
-801.1471807396002,-343.7993606379345,75.66467652052435
-805.682878454926,-343.9400814753255,55.97416039116315
-776.0815365083898,-363.7959955744317,25.08756812978948
-749.0804709049473,-340.8258681608909,21.48990735878205
-746.0998404144128,-348.7980095139523,-1.9862746197733174
-753.5611039447723,-352.5393482993683,5.763813330750053
-761.1590094476708,-356.3143377198126,9.587361637256354
-776.2457108186793,-348.3891033125481,17.183849734618857
-805.8185007112521,-343.9747518265667,52.047641141470336
-820.4422509215686,-308.9005929649779,67.40874814539114
-837.3919738136877,-288.86011023132266,129.88125404699875
-860.3763772542103,-288.64800925902324,133.46045795455126
-889.7594999311692,-276.461380797724,172.2259895071202
-945.9519815635309,-279.4736224908608,218.48949437371584
-1026.5992974155295,-278.7802154660359,225.1288666364151
-1045.2397097887658,-266.8882849902872,240.50720684433523
-1063.7781505407047,-278.14085340049866,263.8158800405847
-1095.5830992234862,-301.3200226377,239.86988421122408
-1166.3106157556354,-339.74496897513427,207.54284082739775
-1247.3372660388616,-354.59509618473186,206.37934462838996
-1305.6548362590693,-350.4173188601613,189.79366042430394
-1321.5930006679143,-346.5658507237436,173.8432594209032
-1341.6712129014495,-346.62295483167037,149.99515634798837
-1394.4211325987978,-369.0760861252314,188.5261531715724
-1467.7183339876515,-380.1175732793564,187.46564831007535
-1521.2636323311224,-379.59751801073764,198.43575532929188
-1489.8359786471428,-371.96188300795893,214.57990241315844
-1501.093645638419,-387.24436989185915,226.23627844370915
-1462.884879138136,-376.03870842744465,214.9969663442664
-1465.842056155772,-364.19776376234495,238.46063640488853
-1486.3587463608878,-368.2256428036078,202.84500823420845
-1521.426786925199,-344.88229925611705,186.5428051373303
-1552.0386676387964,-352.31297130008727,193.9581814381058
-1555.6382658706084,-336.7745356467296,197.77599893949514
-1591.0632071094617,-325.1049033054102,173.65869078635416
-1591.3079390005762,-301.9960944869043,161.8034700942728
-1622.5928324147392,-309.5980788546548,149.5862501465842
-1622.8681557922432,-290.3570536319743,137.74326604905858
-1620.431034043226,-279.15649074862466,94.57143876859071
-1605.0741078757783,-267.7030382444566,90.83825771287852
-1586.841581987733,-260.3886138487659,59.68970035639082
-1551.8347243962007,-233.54152539348303,64.0480694222798
-1479.0881697623552,-184.01798779399695,41.4230139752107
-1425.7162231750906,-149.82180459178213,18.559446905926084
-1371.273574564199,-119.22012104031448,27.12088225846747
-1313.659608530946,-69.50966945898956,12.117695645301913
-1263.1020786915003,-42.74701350614124,20.63395756960838
-1231.9497483850246,-35.17918963152555,28.924352352740236
-1185.8483783962924,-35.570556714066484,25.691648014357604
-1150.5661974272562,-27.96408559497892,41.892899206150936
-1101.4260731238496,-47.899741501940014,19.148536962163433
-1074.5565509118815,-44.2735286769692,15.614098596360636
-1052.4185119281306,-67.86965987365717,-7.522375123003268
-1037.5510495429123,-87.43485288044337,-19.007510209908585
-1015.438503464486,-76.2808910280269,-50.110894138161356
-999.8062539195344,-84.06897360464583,-42.00119306796919
-946.7850897095338,-80.85625570403758,-68.69022551024051
-947.057353938399,-100.23402487087844,-72.55352235472868
-920.2745076045338,-88.90456985820846,-80.03976893230615
-894.0912544038994,-85.44936344215407,-103.20649763170911
-889.4199344322476,-85.27387028190056,-79.58987013914029
-862.3638041533042,-73.87609428296106,-79.22307821733212
-848.1764924821423,-74.30294748971362,-114.33058179908532
-827.9004553032893,-66.47479006592467,-86.58104449531696
-813.2777248091857,-62.930358481234684,-109.92132889416877
-779.0060826072105,-24.681925020266863,-129.16031468442333
-755.7769472755733,-9.38558019303228,-128.86459698265975
-751.5961108023638,-1.6094792819158428,-120.97811179148844
-759.6304548444169,-9.355814676775454,-128.9217010905865
-743.9441603401774,9.902974002335151,-124.82754049548012
-728.9941009417081,1.9438952139619545,-136.3503337021307
-712.5165066561976,17.539220834841664,-108.68339341161357
-736.4278321343171,2.0718084157179057,-128.6127270780542
-769.8000846364457,-5.055783575430958,-89.84260680252687
-807.952766745015,-27.833765862960338,-74.63874003864726
-853.4841153706925,-62.05574788536351,-47.732915929496826
-879.7489458683649,-96.42650650324016,-20.538104245588457
-936.6225979309959,-118.91930475748599,10.082831547980199
-1013.3644006872887,-129.82720908771088,20.7439849489887
-1067.041242422234,-129.3418241703334,27.78757271851244
-1114.1317371375549,-133.05970948285093,3.547062452519464
-1095.4913247643183,-125.64127403343652,-15.821814788944238
-1063.5946016223686,-110.16504106907048,12.075989252191118
-1067.4185374210358,-125.57601219580592,15.995268516771784
-1100.9875951522693,-140.47508578362644,50.864362447930745
-1184.9714224531315,-162.79361453707435,77.15397204957861
-1302.1674068106847,-188.3364859559585,146.12839246837606
-1417.0282410405187,-179.53531532174597,164.00095853324024
-1544.0033038805302,-190.0914175584935,169.98363355478173
-1617.2189279723455,-170.21612885134067,164.89524965202187
-1618.4425874279189,-170.52408314766,129.55596457505877
-1585.5159509108616,-167.36806146849332,79.01893103149395
-1521.2534351689926,-152.74125210953795,40.68586112484896
-1446.5286310819702,-157.78680793135274,-24.89637133985612
-1366.511499849592,-131.60355473071846,-55.18296258151357
-1296.936262638108,-101.18970290568136,-54.24339606287571
-1250.3352317050167,-70.56283236375317,-49.72411577857883
-1191.6301693238772,-20.57889289410757,-33.3149444509593
-1144.2235625825335,29.56259273044312,-9.226198548943831
-1118.8122345551235,45.40622944634509,53.894959032901156
-1086.5688079007614,72.55709136147411,89.60786813029935
-1054.1316351659334,88.17017024162178,133.21164719858464
-1026.9358037658121,60.98341431579592,145.484951537987
-999.6614542172915,26.09341620227091,161.70965620267881
-1006.8769661403234,-20.066485497086163,185.3048696547751
-995.9150168508106,-66.64885562347999,177.77732457057203
-976.947275573208,-109.35334696354006,178.20560538002277
-958.4149531185473,-156.02983689639174,166.8663610917082
-948.4625228798826,-191.2793869466128,127.8877088506269
-945.7531369020003,-257.24890762900685,108.52839654724092
-953.295977729398,-272.5956366343247,116.31596926575337
-965.5652032039484,-315.1647096613013,104.50255693840406
-976.6882676551116,-349.7228921191233,124.07498993030242
-984.8582339534909,-396.122019242045,120.1847725777916
-996.8266431452128,-434.75498768692677,116.21093849581662
-996.6084238756355,-442.4232536085208,124.08926595728411
-1000.1070702023628,-450.0282971249102,135.83639673078986
-1026.2627910652466,-468.9246582676042,162.98124232026228
-1071.38523348952,-464.42567033594554,193.6869369254537
-1121.371722249698,-467.8733308520239,196.87456980722266
-1188.7953582517987,-462.9899099080726,250.7930842846436
-1198.8293657875015,-420.0364038688034,285.81931648422244
-1185.2569429927653,-384.86231281834273,336.92341421382434
-1165.1379421107108,-342.3187326966906,352.78000132563113
-1174.6824858641842,-306.96619130895874,403.53841525903346
-1212.208042501772,-279.3828677479058,426.43002452417494
-1272.8811571739586,-274.79822365435706,452.9783361290553
-1279.5602983689641,-262.8930368678397,480.3108095017157
-1291.2258518454314,-239.65982267135058,472.2081444733931
-1388.1090892404645,-239.05309152462874,455.0565177711044
-1507.242534402676,-249.6336669504877,465.08134786089033
-1577.7151218815804,-272.5497494047407,436.6312655188061
-1496.0460503841784,-289.4321710268033,351.5695981808263
-1443.387905145998,-297.8937761620941,317.06546068229216
-1438.0445921899936,-306.27278428413376,250.4555582181479
-1477.344455038163,-279.13303727572617,222.30221329404029
-1559.2786527509395,-286.48519117129706,193.62779338510097
-1618.1978555368044,-270.87129651817907,157.37076371645773
-1676.4134541357143,-231.90895973650535,136.7439441603402
-1707.8105163333048,-197.0581187255587,112.6082811153656
-1712.0729301035524,-158.51182615878002,92.79172806208034
-1716.9675679258467,-131.70858550065518,57.30641962341881
-1714.2041369886763,-132.0124609321226,25.951879591909574
-1675.832215894317,-116.90332580442865,18.626442261118733
-1639.7750506034172,-121.68579484329513,-51.46059051765894
-1582.1916760565537,-114.46314490677247,-58.47164933998869
-1547.3275787348382,-145.577745713368,-46.07037061585761
-1478.0684535493774,-180.8976561822845,-40.9892266982099
-1426.7971223608472,-169.40443474581025,-8.863148985637299
-1385.1825037092178,-162.2001397011212,-31.811678809787242
-1315.546083524955,-124.04847730876497,-30.897299281609932
-1238.5065236344726,-109.20242896401933,-33.718038269949474
-1173.815727083153,-90.60413087037878,-60.28409293693566
-1088.5470573539385,-79.54999923521285,-47.27027068366874
-1023.4483743174276,-80.15846389949678,-58.06702594667905
-990.3188142739876,-88.54002131206886,-100.71329149097807
-947.5488571530544,-92.63346810582615,-88.28499028720309
-916.939015871883,-104.51173438432086,-91.71103281956633
-866.3529339784739,-93.18992724324822,-79.21767372140334
-843.531685132028,-97.30560385044843,-86.71116028409295
-809.0418236604753,-105.34484253032382,-90.09202938822126
-777.9965635563624,-93.94268175166853,-85.74090030744445
-743.3965727338083,-125.12631734588267,-81.19276205432028
-693.8475422289977,-106.34008555419028,-100.13704985902424
-670.2084809797434,-110.25069723096064,-84.0713189519357
-659.138441771655,-102.73946760616522,-99.62923118496124
-627.6016784528866,-98.9377616209409,-79.54663417171001
-601.5000025492906,-107.08855725451608,-102.67624520096058
-596.9653245501778,-87.63798035006859,-86.97506284001163
-589.4765286820679,-80.0284500823421,-94.73785645454872
-596.6390153620248,-60.52270653077249,-83.13705495760532
-643.0442607822245,-44.75921950921059,-91.73458826408611
-650.3423697185074,-44.5970846313471,-80.07056436193808
-681.1153655937553,-36.62157821478283,-80.55839659822672
-711.5610325646373,-40.14959236844387,-69.22873764231416
-730.7194607740666,-24.525908439681242,-69.56840511285709
-753.6222869175509,-12.706989644781858,-66.02672676194216
-784.6410344001265,-0.9312211611508519,-74.38034395027864
-818.4772577791601,3.4105326487638497,-51.35403017340275
-848.8138151152536,-3.9520427465036487,-36.08520748675644
-902.5436820932736,-11.20453977658018,-29.01622878352955
-982.7841311762937,-49.02744566187231,-2.6182641370906476
-1059.332187852121,-52.16419470461371,11.94413994585307
-1112.7347259257751,-51.61079471583059,26.84086818638373
-1181.3616270591897,-43.16672869940296,45.40745310580066
-1205.5798871174154,-23.952420041502453,9.658405265814524
-1224.352862598339,-31.40420021108126,25.100824440558196
-1256.5656977663118,-54.686360785793326,-10.624831109502226
-1282.833587412623,-108.36626166937744,20.559824200924886
-1313.0885674516785,-142.74191492507637,43.7702987258646
-1385.1009264121797,-145.73682144259254,78.02328012114229
-1471.4402981650207,-148.3401569343252,143.45775570658688
-1550.1827841311765,-127.85813708045052,201.07784003711768
-1649.2074255734633,-115.20549830982038,230.9494067800931
-1702.660949457766,-103.08005282129984,241.8817842994295
-1754.7990394273277,-103.20649763170911,182.23144498885964
-1687.049094237074,-61.664482774443876,128.16099279570497
-1635.2271162935358,-35.58146767754534,62.13120688512388
-1572.6063436545612,-2.055543942120908,-27.310243559217472
-1528.5749975781741,31.7902647693147,-97.40808532985271
-1481.871995023785,19.963800074439288,-80.97005603340591
-1392.6468263882164,7.844238348467623,-59.969510485231964
-1320.9301851294788,-7.550600867778498,11.799748130095395
-1244.1455542922406,-3.3579458836605776,114.97606216190034
-1176.0183141031853,0.654794450704369,190.55028985433356
-1080.9705658915125,35.34061070803996,258.57555842209115
-1038.999046565341,-3.7081470226835878,255.41137901322065
-970.1773796352476,-42.99939326885328,248.72611952093735
-944.8924964182469,-109.28400626105756,214.00682190146483
-908.0746228324658,-160.21679166687915,175.48398280758465
-893.8047141480528,-206.96568145085226,152.30787271902233
-871.5014811377994,-245.96880688104503,137.07433221334506
-868.9297568486692,-273.3532857805673,105.80881340722878
-864.9120749695361,-288.7887300964142,113.76973788194746
-865.9746192634591,-323.8129228635671,90.32472862802283
-846.5714591629151,-323.92713107942063,94.54033742409489
-862.6656401523458,-362.5978290241826,82.65585087670102
-842.7169318778584,-362.5764149837101,102.57733272830173
-854.9035603391577,-393.53907807457193,90.72578301458705
-842.6608474861448,-412.7668469864837,114.5212687309122
-865.6187383051298,-408.6849229859331,118.08823604390899
-903.0076529701785,-419.68562149153894,152.88707152799378
-946.6586448991247,-399.3698153803797,222.80799253567736
-1000.1713123237804,-356.3632840980356,225.78658359378588
-1037.561246705042,-328.74529018574134,252.60511999510538
-1063.4212498661623,-305.08481489601445,279.61026446339986
-1077.4933336052577,-308.4927064797867,318.6572376907507
-1088.4858743811599,-285.0881799595173,330.1871689108922
-1087.4457638439224,-292.5525026385157,361.62501975700167
-1110.8992367424146,-280.8696139864276,349.460825052388
-1107.5647647259768,-296.47739034226777,337.78915327864263
-1142.5920166417689,-288.57458969168886,325.46384341237837
-1200.8891925377168,-299.83735526403007,312.8550524389063
-1243.982399698164,-284.2397760703197,288.6092600429301
-1276.5011497300304,-292.1497147343894,241.0537747344914
-1365.1348829620717,-272.1561389465312,235.73391525138558
-1469.6965834408286,-267.6204412312054,218.45380430626162
-1561.4404511224527,-278.30706714321406,240.6632234249209
-1576.4710681017475,-281.9545920370361,252.22374613145163
-1513.758521003605,-286.026318875457,284.5742429881764
-1466.719012098933,-309.35538639596604,312.82955953358186
-1413.7039661862104,-306.1432803250856,286.14052709131056
-1398.9384754222901,-321.8734226264831,270.7162996538064
-1453.3811240331818,-313.8564137600506,254.1754829630914
-1545.9407646851885,-324.7490223470808,252.82537869710862
-1646.5765577439802,-327.9458326747667,239.55581161762683
-1756.2980222604053,-296.6762350037985,178.93674190472794
-1795.5978851085745,-269.5375077116039,150.7844166968333
-1825.271626906232,-227.52519973691324,63.85666868910383
-1826.3321317677292,-223.930700086166,32.43166626727782
-1789.8466856673788,-205.43202826653348,-29.87809292673849
-1722.3618666924997,-183.26747666124518,-87.81143407789614
-1649.941621246807,-160.86023259726818,-114.27449740737154
-1580.1930322791168,-145.85306909087203,-105.43151840842695
-1561.063156123651,-184.65429071089517,-101.08905691546045
-1559.074709508344,-153.2602876619437,-50.14515660291742
-1518.8265105821051,-25.684510000866762,-26.424925943110033
-1439.0745055651014,-18.87973976842245,-60.57481402925566
-1365.777304176248,-7.8389460213222675,-59.51420719613732
-1274.0844223052727,-4.889600424201945,-81.69833735271474
-1196.4738213355224,-24.657349859534094,-60.845956570286496
-1131.5586872173476,-33.03747966940801,-75.54394212090776
-1062.7176456792076,-49.15052540877874,-86.23219957885722
-992.1818357950983,-37.806386482641884,-53.81695074260834
-942.7959598843644,-22.923526382607722,-76.67511331596417
-858.6204259354622,-31.452432787955118,-91.0839073485849
-811.0965518296259,-23.764282400208025,-55.07650420887868
-749.3048084718024,-43.51557361586271,-46.23495281263225
-706.725538282696,-55.38068555520999,-37.707881896468216
-652.395058455232,-59.56335751760286,-25.10612696486568
-612.9881254046999,-51.91823915404344,-0.9939275899517166
-582.2967068264902,-52.190503382908545,-4.457903565437739
-531.6025350145055,-25.393686936925455,7.984918397210057
-512.826500384943,-17.94180479572535,-7.457449791722965
-478.5273258452174,4.865912416574468,-22.719073281905647
-475.79244696201056,20.003263091881532,-58.0508124588927
-467.4858386910923,27.817960261659184,-42.25428663203031
-479.0738937353735,24.03848408987779,-42.41509587881693
-478.5283455614303,24.17533000565943,-26.708916908424392
-494.32374970045845,47.36989695767669,-42.72223440216588
-544.6100350272519,39.98511214329053,-47.37519948198417
-587.2158178378958,28.671972590028197,-51.89978229058854
-609.5996084289743,17.449587779720904,-28.64953883334268
-655.5408829722688,2.434399106728598,-17.51321807141073
-689.9766994845335,-1.0981119954316716,-10.16782489433191
-751.1953623306634,-15.960088307424044,4.6637944660001125
-811.1057292755427,-18.90808787914324,54.79638816517364
-887.4926707897192,-37.451321297282966,77.26246985463946
-1010.3939673588842,-55.705873055528656,91.18159616178819
-1095.0630439548675,-39.576409885128975,89.85892226193451
-1164.4751265722753,-46.77825761090689,88.8433868854298
-1199.5941529472348,-31.172316744250082,72.56626880739091
-1251.518102512071,-19.6581911254098,16.805025161497557
-1279.6622699902618,-50.63910713648392,-10.984383046198245
-1291.6847241412715,-77.6993162802792,-18.922465877746227
-1320.767030535402,-100.1947657966788,35.66243314485579
-1388.5475672120451,-106.98658563321828,81.76553665114999
-1517.766005720608,-120.96995406178462,134.8217790988768
-1639.0612492543326,-123.3734251757736,191.88203922848274
-1760.274915491019,-114.17150606986077,248.9045698582085
-1821.5496627288626,-98.1517643639775,255.78255571474463
-1832.0935283710544,-75.63245348819424,169.20660980049254
-1803.1131935982219,-29.993014943941102,106.69290736388065
-1767.2803658741773,-7.796556418348775,24.737805468738053
-1719.9655335920015,-16.60495684051129,-53.01616760055677
-1670.9681695584122,-17.26542703165709,-83.67689272075583
-1620.431034043226,-13.680920599797078,-71.15824466051099
-1549.0203076483815,-13.70345632810389,-11.21922369004706
-1473.377758969679,1.7875523241881788,56.58017773653592
-1366.8582033620044,24.777982287529383,124.81632361713736
-1269.026629888902,43.719720801700895,165.46425129886353
-1194.1386712078029,28.124079068795158,217.65842566013882
-1111.0929828228807,-18.309820376989087,289.7023958232424
-1057.9555709646006,-76.85988589375577,278.92195601963977
-985.8065700315603,-151.06789780404117,264.5551742949937
-930.3768361265061,-198.45207078869953,206.67608204636653
-916.4893210219598,-241.43514859814516,171.7069539547144
-902.05625774347,-264.97121850988873,148.4553848663917
-895.685070844784,-280.8135295947138,113.282313532144
-877.7258289018167,-312.18611860319277,82.26020098606558
-869.7190171975141,-308.3081378452377,90.21633279458327
-874.99095001861,-316.3577776304855,50.91830543559728
-856.0782734165083,-308.8720409110145,39.40244629919494
-876.8172617560533,-324.5399805234204,-0.10153191966675676
-856.4045826046612,-335.9873147303106,35.56443841678861
-851.8699046055483,-316.5362279677566,51.26521289125237
-839.1917729295939,-312.48285602116937,82.83838007882407
-842.3906226897055,-316.15077523925095,102.42641472878098
-833.1560726649774,-331.2752061101396,149.71065552456753
-850.9786726354057,-319.1783126755824,188.64953883334272
-848.9616739661352,-283.9155063145927,239.5802848067383
-898.9461232938874,-306.6725130396211,246.75806722988995
-933.1096755772869,-290.8271428061571,257.96678784294335
-1017.7216480653435,-305.5783575430958,264.5980023759388
-1044.8318233035748,-324.7143519958396,264.25639744459124
-1089.9032799171991,-351.0964498580046,302.9168982272234
-1093.1561746365987,-362.5009559839497,322.5291001514279
-1155.1651175477866,-373.69947943487335,313.78911248999407
-1198.5846338963868,-365.908847567722,281.7159784431993
-1242.4732197029568,-365.9577939459449,237.88755589319493
-1246.3073526637538,-342.7500726547802,233.82704593311686
-1269.862797183544,-327.23305104189507,217.7236874977694
-1341.385692361816,-318.5195760019987,263.71798728413887
