acc_x[mg],acc_y[mg],acc_z[mg]
-509.72044480021214,-75.84016968077785,871.8991704608608
-498.868624861701,-79.96910259874677,852.4531822793717
-503.18610330744957,-87.77941498880863,840.6407896682354
-503.1320583481618,-60.73256412740335,836.6251472215283
-511.32955698429134,-72.38180214446321,824.767887097021
-511.76497580723293,-76.35318890752704,813.0013817154686
-527.2330510418951,-103.28093691525649,816.7845288656167
-514.6364966629787,-91.52473066745526,844.4066016427629
-534.4771150188903,-95.38150132818038,828.4235697205469
-518.7632881769003,-72.25392973135577,832.5054937210975
-514.6915613384796,-79.95268516771783,840.4419450067048
-534.3955377218521,-83.7752953353082,828.3858402206666
-522.5076861109554,-76.05869486521902,836.3865336276915
-518.8999301494395,-72.28809022449053,828.5785665849195
-522.7544574344961,-33.63952012155018,820.5421831104405
-527.0709161640316,-60.75928069218337,812.7189203244737
-526.4437906930502,-49.01633075515085,828.3878796530927
-506.73981430967774,-45.19372058756049,840.4439844391306
-518.1636950436695,-45.07023295416886,844.1965401028896
-506.3584404460239,-29.65039029638052,848.2458331846249
-505.89548928533196,-21.810404164521017,860.0001019716213
-495.15277898160946,-41.414244415779095,840.6040798845683
-495.2333365624348,-72.32989858922262,844.6319589258311
-514.8006709732682,-76.11824629205694,836.5027812759711
-498.56882829508555,-76.031978300439,860.2927605247461
-487.0083055885548,-76.12130544069586,860.4671319971653
-486.7900863189775,-83.79028516363897,868.3454594586328
-498.5412959573352,-91.47272514059338,864.270673471573
-513.9828585704599,-75.91297741838447,860.062304660613
-498.70547026762455,-76.06624076519506,856.3668531047811
-511.302024646541,-68.51310080404625,824.7556505024652
-511.35606960582874,-76.25060545650146,824.7811434077897
-495.53415284526324,-56.957574706959065,832.802231139074
-506.38495306756136,-52.82853981736883,852.2482193205632
-529.4509338051221,-64.22203300821383,855.8661724442088
-521.3900771415315,-71.91630169323878,867.7866549739209
-506.73879459346466,-83.81251497708189,848.423263805683
-499.3866406978938,-76.23724717411145,836.734256856317
-491.7071578979571,-99.47484615031638,840.8518709243218
-491.7071578979571,-80.16549994136633,836.8617213829393
-511.68339851019465,-84.05643109522622,816.9527820407583
-511.41113428132957,-83.98800813733538,824.8056165969012
-514.1195005429989,-75.94723988314053,856.1353775244351
-490.6986585633218,-52.87921971315384,860.3325294570523
-501.7686977714103,-41.0811031289992,871.9012098932868
-498.3516287417212,-45.082265605482,860.1918086196613
-482.85602116930863,-52.9045086752357,864.3746845252967
-487.36316683067105,-87.79583241983758,852.6520269409025
-494.9335399958193,-87.7021204998649,856.462706428801
-518.599113866611,-87.66041410675409,840.4093140878895
-496.2693682348203,-84.17543197728072,817.1842576211042
-495.2058042246843,-87.77054345775572,848.608852156445
-507.5025620369851,-76.28038116992042,824.8382475157165
-504.0865127235091,-41.66264728526052,805.1495668755385
-522.94412465011,-60.72063344771151,820.6298787047565
-537.4577455094249,-87.40905406025504,851.8994763757247
-510.70141179709697,-99.25764659695207,848.416125792192
-518.3533622592834,-110.7697327833664,852.2645347799709
-499.84959185858577,-103.38698740140619,828.9691178944901
-506.9845462007924,-99.3216847751271,844.5473224801539
-522.3985764761668,-99.20258192145127,844.3158468998078
-511.4101145651166,-103.29725237466414,828.7957661382839
-515.6460157138268,-99.5015627150964,816.9456440272673
-515.2095771746724,-95.53027792365386,828.7131691250326
-526.7425675434528,-91.57224944298002,828.5265610580576
-514.6099840414413,-68.34658114646695,840.4042155068246
-506.52159504010035,-72.17214849107495,852.311441725768
-506.2217984734849,-68.23502419276716,860.1520396873551
-499.3866406978938,-76.23724717411145,836.734256856317
-499.1684214283166,-83.90622689705455,844.6125843177844
-495.50560079129986,-91.70766775606349,840.7682541948577
-498.8135601862002,-91.5411480984842,856.416819199217
-514.8832679865195,-68.41500410435776,832.5503612344685
-517.9179434363417,-68.17995951726635,856.0527805111838
-506.5481076616378,-76.0409518031132,852.3246980365365
-494.6602560507411,-87.63369754197407,864.3155409849439
-510.3465505549806,-106.89277174162432,860.2203606736246
-507.6116716717738,-91.75518653158828,824.8892333263653
-495.5066205075128,-72.39821957549215,836.779124369688
-495.77888473637796,-91.77609071395432,832.9154196387146
-502.8312420653333,-95.41423421861697,852.4450245496679
-499.3591083601434,-91.67789204264454,840.7111500869308
-503.4583675363147,-87.84783794669944,832.7869353958795
-515.6184833760765,-95.63286137467944,816.9334074327116
-527.2065384203577,-99.41233754646083,816.7722922710611
-530.6236074500467,-95.41117506997804,828.4816935446866
-507.8839359006389,-91.82360948947908,817.0363987702224
-496.1062136407439,-99.58191635267906,825.0880779878961
-514.2275904615746,-91.42204524480839,856.1863633350839
-515.0739549183463,-76.18666924994776,828.6499467198279
-521.9080929777243,-87.4938944491748,856.0578790922489
-517.8904110985912,-102.9301545379921,864.0188035669673
-503.10350629419844,-95.48265717650779,844.5921899935248
-504.139537966584,-107.32819056456589,817.1444886887981
-508.1021551702162,-122.77383204254257,817.1373506753072
-495.2873815217225,-99.3767494506279,848.6476013725381
-494.79689802328016,-106.97740818730149,864.3787633901487
-509.9927090290772,-95.21793884761871,868.0364854461004
-502.7496647682951,-83.80813019736608,852.4072950497879
-495.9695716682048,-99.54775585954431,829.013985407861
-480.4188994202913,-99.63259624846407,833.172388124385
-503.349257901526,-91.68237879398166,836.727118842826
-507.06612349783063,-91.61844258742794,840.5949024386515
-510.9471634044246,-95.45736821442594,840.5500349252803
-519.1171297028037,-103.23810883431143,828.6805382062174
-506.6296849586761,-126.26636007199198,860.341706902969
-495.42402349426163,-99.41090994376266,844.7206742363601
-498.868624861701,-79.96910259874677,852.4531822793717
-518.3003370162085,-64.41384162787497,844.2597625080941
-515.1555322153845,-68.48332509062729,824.6975266783255
-538.5213095195608,-83.81394257978006,820.474881840384
-511.73744346948257,-111.10317998501019,820.9684244874653
-514.7180739600169,-103.13103863194875,844.444331142643
-495.5871780883381,-103.31356783407179,840.8070034109509
-488.09940193644115,-95.7043434812092,833.0439038815499
-495.55964575058766,-118.75411073098357,844.7838966415648
-480.1456154752133,-118.873417527902,845.0153722219108
-488.12489484176564,-138.19194118276886,841.0364395588708
-507.9655131976772,-122.73916169130132,821.0642778114852
-511.0287407014628,-107.06306434919163,840.5877644251606
-503.4583675363147,-107.1568782407856,836.7770849372621
-479.6010870174831,-99.42732737479162,856.7319115090271
-487.1714601826312,-99.33361545481894,860.5425909969257
-487.3896794522085,-91.66453376025453,852.6642635354582
-511.05627303921324,-91.62282736714374,836.6108711945467
-522.5341987324929,-99.23684438620732,840.3889197636299
-503.4033028608139,-99.41978147481558,836.7515920319377
-515.2901347554977,-126.4458301254761,832.7400284500824
-515.2371095124228,-99.39897926407083,828.7254057195884
-503.349257901526,-91.68237879398166,836.727118842826
-511.302024646541,-87.8225489846176,828.7447803276349
-511.0287407014628,-107.06306434919163,840.5877644251606
-496.1062136407439,-99.58191635267906,825.0880779878961
-503.29419322602524,-122.56377050266913,844.680905304054
-487.49878908699714,-107.13954306516499,852.715249346107
-495.6422427638389,-111.05117445814831,840.8324963162752
-526.1419546940087,-103.00765297017841,848.196886806402
-514.8271835948057,-99.29629384142395,840.5051674119094
-518.599113866611,-106.97027017381065,844.3994636292721
-519.9624744433625,-126.6212213141083,809.1234009575136
-507.6381842933112,-114.93323408095529,828.8916194623038
-511.54675653765565,-122.64126893485546,828.8589885434884
-488.0718695986907,-111.14498834974228,837.0207971121638
-507.3118751051583,-107.12730647060924,836.7189611131224
-510.837034053423,-118.60115329903688,848.4793481973968
-490.67010650935845,-106.93865897120833,872.2897217704314
-506.5481076616378,-114.65995013587721,860.3039774030889
-495.2058042246843,-107.08039952481226,852.5990016978277
-490.8067484818976,-87.66347325539304,864.3736648090838
-502.9668643216593,-95.44849668337304,848.5191171297029
-487.7170083565744,-99.47046137060057,844.8359021684266
-487.089882885593,-107.03655172765421,864.4939913222152
-479.464445044944,-99.39316688165684,860.6578189289921
-486.3536477798229,-118.43799870496044,888.0912442067373
-483.3179526137876,-99.3633911682379,860.6007148210654
-503.29521294223827,-83.94487414152643,836.7016259375017
-487.79858565361263,-111.07666736347277,844.8746513845198
-483.945078084769,-111.10623913364911,844.9317554924465
-498.7595152269124,-103.11268374011514,860.3814758352751
-490.78023586036005,-83.79477191497607,864.3604084983151
-479.7652613277725,-84.02084299939328,848.8280911422352
-463.7781505407046,-99.44374480582056,868.7421290654813
-488.09838222022813,-115.01379166178053,837.0340534229326
-483.59021684265275,-118.74085442021487,856.737010090092
-479.54602234198234,-110.99916893128643,860.6965681450853
-495.6422427638389,-111.05117445814831,840.8324963162752
-503.212615928987,-110.95736056655434,844.6431758041738
-491.84278015428316,-99.50910861507244,836.9249437881439
-499.33259573860596,-87.80919070222758,840.6978937761621
-518.7082235013996,-103.13511749680065,840.4592801823253
-503.53994483335293,-99.45404393957163,832.8256846119726
-487.4712567492467,-103.27073975312672,852.7019930353383
-483.945078084769,-111.10623913364911,844.9317554924465
-476.40223725737127,-115.06885633728136,841.1333125991038
-499.2499987253548,-114.82208501374069,848.6404633590472
-479.87335124634814,-99.49575033268243,848.8780572366711
-503.10350629419844,-95.48265717650779,844.5921899935248
-503.10350629419844,-95.48265717650779,844.5921899935248
-494.9060076580688,-103.14327522650447,860.4395996594149
-468.06809664870275,-84.07590767489408,852.9283700346194
-464.1870567421088,-99.54632825684612,856.9633870893732
-474.9297670458312,-79.94248800558806,876.3583894602133
-483.5637042211153,-95.56301081409045,852.7346239541537
-479.3828677479058,-107.0967149842199,864.6102389704946
-479.54602234198234,-110.99916893128643,860.6965681450853
-457.2988737234428,-99.8110465857352,833.5190916367976
-503.7030994274294,-122.66676184017989,832.901143611733
-502.7211127143317,-118.55832521809182,860.3743378217844
-503.5674771711034,-103.3227452799886,832.8379212065284
-510.7564764725978,-87.68570306883595,844.451469156134
-491.4614062906294,-83.96577832389248,844.727812249851
-499.14088909056613,-99.34697373720896,848.5894775483985
-487.47227646545974,-83.96139354417667,848.7118434939557
-502.77617738983247,-87.67683153778304,852.4205513605564
-479.464445044944,-99.39316688165684,860.6578189289921
-463.99636981028186,-91.77466311125615,860.8638016040137
-479.7101966522717,-95.5927865275094,852.7927477782933
-475.5018278413118,-103.25748344235801,864.6551064838656
-487.36214711445814,-107.10487271392374,856.6411567660721
-479.54602234198234,-110.99916893128643,860.6965681450853
-483.0181560471721,-95.4262668699301,868.4402930664396
-483.6993264774414,-114.90672145941785,852.7978463593582
-479.927396205636,-126.542703165709,852.8936996833781
-460.0062202688992,-91.77027833154034,864.8488525643315
-503.2676806044878,-99.3856209816808,840.6785191681156
-487.4998088032101,-68.52064670402228,844.7349502633418
-499.2499987253548,-95.51243288992674,844.6503138176646
-487.66296339728655,-91.73295671814535,844.8114289793151
-499.11437646902874,-95.47827239679198,848.5772409538426
-487.5803663840354,-99.43619890584452,848.7628293046047
-488.42673084080707,-84.20072093936258,821.2264126893486
-491.43489366909193,-80.0970769834755,844.7155756552952
-506.7112622557143,-99.25326181723628,852.400157036297
-495.1242269276461,-95.47378564545488,852.5612721979475
-491.37982899359116,-110.97877460702688,852.669362116523
-487.68947601882405,-114.91080032426976,848.8138151152536
-464.1870567421088,-99.54632825684612,856.9633870893732
-475.88422142117855,-99.49126358134532,852.863108196989
-487.2805698174199,-95.49907460753673,856.603427266192
-460.3345688894781,-80.26675776131503,853.0313613721303
-483.59123655886566,-99.43181412612871,852.7468605487095
-475.91073404271594,-103.36047477986877,852.8753447915445
-479.9549285433865,-111.1021602687972,848.9168064527643
-495.34244619722335,-107.11405015984053,848.6720745616497
-495.2058042246843,-87.77054345775572,848.608852156445
-483.4821269240771,-64.64745861226821,848.7067449128908
-491.0525000892252,-83.86319487286688,856.507573942172
-487.1989925203817,-83.89297058628586,856.5656977663118
-499.932188871837,-95.68343929884314,825.0177175692006
-503.73063176517985,-87.91626090459027,824.9341008397365
-480.4199191365044,-80.32314806789272,829.1822385830026
-491.9794221268222,-99.5432691082072,832.9990363681788
-484.32747166463577,-107.34042715912163,833.1397572055698
-480.7462283246573,-107.4383199155675,825.3440267573535
-498.78602784844986,-106.98148705215338,860.3947321460439
-491.18914206176424,-103.20649763170911,856.5707963473767
-498.6779379298742,-91.50688563372815,860.3437463353949
-495.314913859473,-83.93600261047351,844.6696884257111
-491.73469023570743,-84.03420128178328,836.8749776937079
-480.09259023213843,-91.82666863811802,840.9997297752036
-471.703384947969,-91.71521365603954,860.7485736719473
-479.00149388425206,-91.55307877817604,872.4120877159888
-474.5473734659645,-103.01785013230818,892.1405372884727
-482.9090464123835,-99.2608077172123,872.3804765133865
-471.0211948014868,-110.85334951283059,884.3713194617939
-467.82234504137506,-107.18543029474897,864.7835907267008
-471.78496224500725,-84.01197146834038,856.7971733466577
-479.5745743959457,-76.24917785380329,852.7295253730888
-482.96411108788425,-87.68876221747489,868.4158198773282
-486.6534443464384,-83.7561246705042,872.2713668785977
-486.2180255234968,-79.78473790744037,884.0388919763632
-487.0633702640556,-83.85870812152979,860.4916051862767
-475.50284755752483,-83.94803526178666,860.664956942483
-475.63846981385086,-83.98219575492142,856.739049522518
-479.87335124634814,-99.49575033268243,848.8780572366711
-472.7394166203546,-84.25140083514758,829.3107228258376
-483.7543911529422,-103.33498187454434,848.8331897233002
-472.4396200537391,-80.31427653683981,837.151320787425
-490.834280819648,-91.53217459580999,864.3859014036394
-487.3896794522085,-91.66453376025453,852.6642635354582
-486.57186704940017,-91.45936685820337,876.2237869201002
-467.7407677443368,-95.5795302167407,864.7458612268206
-479.41040008565625,-91.65566222920162,860.6333457398807
-467.5500808125099,-87.80786507115072,868.6472954576743
-480.0099932188873,-99.52991082581718,844.9521498167061
-471.9756491768341,-91.78363661393035,852.8957391158042
-475.0929216399077,-83.84534983913979,872.444718634804
-483.70034619365435,-95.59727327884652,848.8076968179756
-475.6109374761005,-99.42294259507581,860.7159427531319
-462.82369616535726,-79.89486725844199,892.2384300449186
-468.20473862124175,-84.11017013965015,849.0014428984415
-463.942324850994,-84.03726043042222,860.8393284149023
-479.7101966522717,-95.5927865275094,852.7927477782933
-487.4712567492467,-103.27073975312672,852.7019930353383
-483.9726104225195,-95.66569623673733,840.9548622618327
-490.5885292123202,-95.33255494995744,872.2519922705512
-494.6602560507411,-87.63369754197407,864.3155409849439
-483.6452815181535,-87.85976862639129,848.7832236288642
-472.5211973507773,-91.9203805580907,837.1890502873051
-487.49878908699714,-87.83009488459362,848.7250998047244
-483.8635007877308,-99.50023708401953,844.8940259925663
-475.58442485456305,-95.55413928303754,860.7037061585761
-487.2805698174199,-95.49907460753673,856.603427266192
-471.2129014495266,-80.00642421214178,872.490605864388
-475.69353448935163,-91.71970040737664,856.7645424278423
-472.22140078416186,-87.9832562597829,845.0296482488925
-491.5429835876676,-95.57198431676466,844.765541749731
-467.4960358532221,-80.07036041869549,868.6218025523497
-490.7251711848593,-95.36671544309219,868.3250651343732
-489.2261883517818,-75.6810939515533,907.5270352260968
-487.3356344929207,-83.9271310794206,852.6387706301338
-480.3108095017157,-84.15768891517492,833.1214023137362
-475.8566890834281,-114.93221436474231,856.8400014276028
-483.04568838492247,-99.29496821034708,868.4535493772084
-471.4586530568543,-76.20614582961562,864.6245149974764
-490.9158581166862,-83.82893240811083,860.43450107835
-483.0181560471721,-95.4262668699301,868.4402930664396
-479.62861935523347,-83.98668250625852,852.7550182784132
-495.34244619722335,-87.80480592251178,844.68294473648
-471.703384947969,-72.40576547546819,856.7584241305645
-495.47908816976246,-87.83896641564654,840.7560176003019
-499.33157602239305,-107.11812902469244,844.6880433175448
-483.2914399922502,-95.49468982782092,860.5874585102966
-486.57186704940017,-72.14991867763202,872.2336373787176
-475.3937379227362,-87.78247413744755,864.6041206732168
-471.6483202724682,-103.28705521253436,864.7132303080053
-475.58442485456305,-95.55413928303754,860.7037061585761
-476.18401798779405,-84.11904167070306,841.032360694019
-484.0552074357706,-68.6530058684668,833.0133123951605
-495.2058042246843,-87.77054345775572,848.608852156445
-471.703384947969,-91.71521365603954,860.7485736719473
-479.6836840307343,-72.41463700652109,848.7903616423552
-487.2815895336328,-76.18972839858668,852.6132777248093
-487.3081021551703,-80.05842973900366,852.626534035578
-479.328822788618,-99.35890441690078,864.5847460651702
-483.7819234906926,-87.89403109114734,844.8562964926862
-464.46034068718683,-80.30530303416559,845.1204029918475
-464.32471843086074,-60.96169436045949,845.0571805866427
-479.1381358567911,-72.27789306236075,864.4960307546411
-487.6354310595362,-87.8642553777284,844.7981726685464
-483.45459458632666,-99.39755166137265,856.6737876848873
-486.68097668418886,-106.9345801063564,876.2737530145363
-494.55114641595253,-91.46823838925629,868.2547047156778
-475.55689251681264,-72.37598976204923,856.7013200226378
-494.4695691189143,-79.8620323963841,868.2169752157976
-471.5402303538925,-68.50290364191646,860.6731146721868
-474.90223470808075,-95.38313287412115,880.3363024070403
-491.4889386283798,-107.1436219300169,848.7301983857893
-495.3964911565112,-95.5422086033457,844.7084376418043
-479.9008835840986,-84.05510546414934,844.9011640060572
-476.18401798779405,-84.11904167070306,841.032360694019
-479.21971315382933,-83.88399708361165,864.5337602545213
-480.39238679875393,-95.7637929364258,833.1601515298294
-491.5429835876676,-95.57198431676466,844.765541749731
-502.9128193623715,-87.71099203091781,848.4936242243786
-475.7210668271021,-76.27895356722225,852.7866294810156
-483.37301728928844,-68.48199945955042,852.6459086436245
-472.0042012307975,-76.34288977377597,848.9178261689773
-491.32578403430335,-83.93161783075772,848.654739386029
-483.37301728928844,-68.48199945955042,852.6459086436245
-475.3662055849857,-64.60442658808054,860.6017345372784
-475.44778288202406,-95.51997878990278,864.6296135785412
-479.73772899002216,-80.1521416589763,848.8148348314666
-479.3828677479058,-87.78696088878466,860.620089429112
-463.88726017549317,-76.2998577495883,860.8138355095779
-479.6021067336961,-60.808532985270205,848.751612426262
-479.11060351904075,-87.71853793089385,868.472923985255
-479.6010870174831,-99.42732737479162,856.7319115090271
-464.3787633901486,-88.00864719348607,849.0718033171369
-487.22652485813205,-68.45222374613145,852.5888045356977
-494.60621109145336,-79.89629486114015,864.2900480796195
-471.6218076509308,-80.10900766316735,860.710844172067
-484.00014276026985,-99.5343975771543,840.9670988563885
-483.2373950329624,-68.44783896641565,856.5728357798025
-499.25101844156774,-76.20298470935539,840.660164276282
-497.91417048635367,-79.72967323193957,879.9386130839789
-475.88422142117855,-80.18191737239528,848.8729586556062
-483.672813855904,-72.41912375785819,844.8053106820373
-468.36789321531825,-88.01303197320188,845.0877720730322
-471.81249458275767,-87.88067280875734,856.8094099412135
-479.62861935523347,-83.98668250625852,852.7550182784132
-486.3271351582855,-75.95029903177947,880.0997282456293
-471.567762691643,-72.37160498233342,860.6853512667426
-495.17929160314685,-83.90184211733875,848.5966155618892
-498.7595152269124,-83.80364344602899,856.3923460101054
-472.65783932331635,-72.6451948422754,829.2729933259574
-480.6646510276191,-76.52286968536657,821.3171674323038
-487.6354310595362,-87.8642553777284,844.7981726685464
-487.22652485813205,-68.45222374613145,852.5888045356977
-471.3770757598161,-64.59993983674345,864.5867854975961
-467.33186154293264,-76.16749858514376,872.535473377759
-486.5443347116498,-87.59066551778642,876.2105306093315
-471.67585261021867,-87.84651231562258,860.7363370773915
-486.92672829151655,-83.82454762839504,864.4185323224548
-487.6078987217858,-83.99555403731142,844.7859360739908
-467.30534892139525,-72.2986952731055,872.5232367832034
-479.11060351904075,-68.4091917219438,864.4837941600854
-491.37982899359116,-72.35957233102029,844.6900827499709
-495.3964911565112,-95.5422086033457,844.7084376418043
-483.59123655886566,-80.12236594555736,848.7577307235398
-502.42233586392916,-76.00220258702004,860.2356564168193
-506.4389980268492,-79.8753906787741,856.2638617672703
-487.1724798988442,-80.02416727424759,856.5524414555431
-487.5813861002483,-80.12685269689446,844.772679763222
-490.6170812662836,-60.58246190085299,864.2849494985546
-487.4172117899589,-76.22388889172144,848.6873703048442
-498.95020215873933,-91.57530859161896,852.490911779252
-490.64359388782105,-83.76061142184132,868.2873356344929
-498.9777344964897,-95.44400993203593,852.5031483738078
-475.80264412414033,-68.57571137952309,848.8352291557261
-483.1272656819608,-91.5917260226479,864.501129335706
-483.7543911529422,-84.02532975073039,844.8430401819176
-483.26390765449986,-72.31654030683262,856.5850723743583
-475.58442485456305,-76.24479307408748,856.7135566171936
-499.11437646902874,-76.16882421622063,844.58709141246
-490.834280819648,-91.53217459580999,864.3859014036394
-487.79858565361263,-91.76721918290141,840.8845018431371
-479.328822788618,-80.04955820795074,860.5945965237876
-494.987584955107,-95.43962515232012,856.4871796179124
-487.7170083565744,-80.16101319002922,840.8467723432569
-498.9777344964897,-95.44400993203593,852.5031483738078
-491.570515925418,-80.13123747661028,840.7886485191171
-491.43489366909193,-80.0970769834755,844.7155756552952
-494.6602560507411,-87.63369754197407,864.3155409849439
-495.3975108727241,-76.23276042277435,840.7182881004219
-471.840026920508,-72.44002794022424,852.8325167105995
-483.5637042211153,-76.2536646051404,848.7444744127711
-506.357420729811,-87.57863286647327,860.2152620925597
-479.2472454915798,-87.7528003956499,864.54701656529
-475.69353448935163,-91.71970040737664,856.7645424278423
-472.1948881626244,-84.11455491936596,845.0174116543367
-483.5637042211153,-76.2536646051404,848.7444744127711
-490.7261909010723,-56.74792105357079,860.345785767821
-482.5827372242306,-52.836085717344865,872.2285387976527
-483.1282853981738,-52.972931633126514,856.5218499691535
-495.2058042246843,-87.77054345775572,848.608852156445
-464.10547944507044,-87.94022423559525,856.9246378732801
-463.23362208297436,-79.99755268108886,880.4586683525976
-475.25709595019714,-87.7483136443128,868.5310478093946
-483.1007530604233,-87.72302468223094,864.4888927411503
-472.3305104189505,-84.14881738412201,841.0904845181586
-475.4212702604865,-72.34182926891447,860.6272274426029
-471.703384947969,-72.40576547546819,856.7584241305645
-491.107564764726,-72.29125134475076,852.5429173061138
-483.59123655886566,-80.12236594555736,848.7577307235398
-479.5195097204449,-87.82112138191943,856.6941820091471
-487.9076952884013,-107.24253440267574,840.935487653786
-479.6010870174831,-99.42732737479162,856.7319115090271
-456.5626386176728,-91.90263749598488,853.1261949799372
-483.18233035746164,-80.01978249453178,860.5374924158608
-483.45459458632666,-80.0882054524226,852.6836381435047
-483.40054962703886,-72.35070079996737,852.6591649543933
-495.28840123793555,-80.06730127005655,844.6574518311555
-483.94609780098205,-72.48754671574902,836.9524761258943
-479.3023101670806,-56.87140868696243,856.5922103878491
-490.7261909010723,-56.74792105357079,860.345785767821
-471.7584496234698,-80.14327012792342,856.783917035889
-488.23502419276724,-95.73850397434396,829.1179964615848
-494.41552415962644,-91.43407789612152,872.1816318518556
-486.9807732508043,-91.56195030922896,864.4440252277792
-483.83596844998044,-95.63143377198126,844.8817893980107
-487.49878908699714,-87.83009488459362,848.7250998047244
-478.8923842494634,-76.07817144488689,872.3621216215528
-487.3896794522085,-91.66453376025453,852.6642635354582
-479.65615169298394,-87.85538384667548,852.767254872969
-472.0042012307975,-76.34288977377597,848.9178261689773
-478.97396154650164,-87.68437743775908,872.399851121433
-463.99636981028186,-91.77466311125615,860.8638016040137
-476.1024406907558,-91.82228385840222,844.9847807355213
-482.85500145309567,-91.52330306475709,872.3549836080621
-499.3591083601434,-91.67789204264454,840.7111500869308
-486.8991959537661,-99.26519249692811,868.3954255530687
-475.6660021516013,-68.54155088638832,852.7621562919041
-475.7475794486395,-80.14765490763922,852.7998857917843
-480.1201225698889,-76.38602376958492,837.0228365445897
-467.7958324198376,-84.00748471700327,860.7812045907625
-467.9865193516645,-72.4697016820219,852.8896208185263
-460.66189779384405,-68.76313521946844,841.213870179929
-471.840026920508,-91.7493741491743,856.8216465357692
-498.84109252395064,-95.40984943890116,856.4300755099856
-479.0830711812903,-83.84983659047688,868.4606873906994
-480.3648544610036,-72.5857453870588,829.1577653938909
-479.2472454915798,-68.44335221507855,860.5568670239073
-467.9049420546263,-80.17294386972107,856.8420408600286
-475.6660021516013,-87.85089709533838,856.7512861170736
-475.7475794486395,-80.14765490763922,852.7998857917843
-491.27071935880247,-76.19411317830249,848.6292464807045
-479.328822788618,-99.35890441690078,864.5847460651702
-475.22956361244667,-83.87961230389584,868.518811214839
-483.5361718833649,-111.00324779613835,856.7115171847676
-498.89513748323844,-103.14735409135639,856.4555684153102
-483.37301728928844,-87.79144764012177,856.6360581850072
-486.8991959537661,-79.95584628797806,864.406295727899
-487.90871500461424,-87.93267833561922,836.9453381124034
-487.7445406943249,-84.02971453044618,840.8590089378127
-479.54704205819525,-91.68992469395769,856.7064186037027
-479.3553354101554,-103.22791167218166,864.5969826597259
-459.6523787429959,-80.09564938077735,872.6639576205943
-483.4270622485763,-95.5288503209557,856.6615510903317
-491.27071935880247,-95.50356135887384,852.6193960220871
-487.77207303207524,-87.89851784248445,840.8722652485815
-491.84379987049607,-80.19966043450108,832.9358139629742
-483.7543911529422,-84.02532975073039,844.8430401819176
-483.0191757633851,-76.11681868935875,864.4511632412701
-487.5813861002483,-80.12685269689446,844.772679763222
-490.834280819648,-91.53217459580999,864.3859014036394
-479.21869343761637,-103.1932413209404,868.5239097959039
-483.5361718833649,-91.69430947367348,852.7223873595979
-479.2737581131172,-91.62150173606686,864.5592531598456
-475.9657987182168,-91.78802139364616,848.9106881554865
-464.35123105239813,-84.1398438814478,849.0595667225813
-475.9668184344297,-53.16922700412476,840.9314087889342
-490.9158581166862,-83.82893240811083,860.43450107835
-482.93759846634686,-64.51061269648658,864.4134337413899
-483.83596844998044,-95.63143377198126,844.8817893980107
-474.9838120051191,-87.67989068642198,876.3838823655378
-479.7101966522717,-95.5927865275094,852.7927477782933
-483.59123655886566,-99.43181412612871,852.7468605487095
-475.8291567456777,-91.7538609005114,852.8376152916643
-479.87335124634814,-99.49575033268243,848.8780572366711
-491.1616097240139,-80.02865402558469,852.5684102114382
-471.4861853946048,-60.76539898946124,860.6476217668625
-486.84515099447833,-72.21834163552283,864.3808028225745
-498.9236895372018,-87.706607251202,852.4776554684831
-491.13509710247644,-76.15995268516772,852.5561736168826
-479.41040008565625,-91.65566222920162,860.6333457398807
-472.8209939173929,-95.85760682801978,829.3484523257179
-499.6048599674711,-107.18746972717494,836.8352087614018
-487.79858565361263,-91.76721918290141,840.8845018431371
-487.5263214247475,-91.6987962250106,848.7373363992803
-494.85196269878094,-76.096016478614,856.4239572127078
-487.22652485813205,-87.7616719267028,856.5779343608674
-464.1880764583217,-80.23698204789608,852.9732375479905
-479.6010870174831,-80.11787919422027,852.7417619676444
-472.03071385233494,-80.21169308581422,848.931082479746
-483.61876889661613,-83.99106728597432,848.7699673180954
-464.0514344857827,-80.20271958314002,856.9001646841685
-483.3454849515381,-83.92264432808349,856.6228018742386
-483.31897233000063,-80.05394298766655,856.6105652796828
-491.65209322245624,-91.73744346948246,840.8263780189974
-472.27646545966263,-95.72076091223813,845.0551411542169
-471.2129014495266,-80.00642421214178,872.490605864388
-475.5303798952752,-68.50728842163227,856.6880637118691
-478.86485191171306,-72.20947010446993,872.348865310784
-482.96411108788425,-87.68876221747489,868.4158198773282
-475.22956361244667,-103.18916245608848,872.5079410400087
-484.13678473280896,-99.56855807028906,837.0411914364233
-479.3828677479058,-87.78696088878466,860.620089429112
-468.50453518785724,-88.04729443795793,841.1608449368541
-480.39238679875393,-95.7637929364258,833.1601515298294
-491.1340773862634,-95.46929889411778,856.5453034420522
-479.5195097204449,-68.51177517296937,852.7040324677644
-478.8923842494634,-76.07817144488689,872.3621216215528
-475.1755186531589,-76.14210765144061,868.4933183095146
-491.7887351949953,-91.77160396261722,836.9004705990325
-468.0956289864531,-87.94460901531106,852.9406066291752
-479.5195097204449,-87.82112138191943,856.6941820091471
-471.07727919320064,-60.66281553843566,872.4273834591835
-467.9049420546263,-80.17294386972107,856.8420408600286
-475.33867324723536,-80.04507145661363,864.5796474841054
-475.6660021516013,-87.85089709533838,856.7512861170736
-487.5263214247475,-91.6987962250106,848.7373363992803
-487.1714601826312,-99.33361545481894,860.5425909969257
-459.7339560400341,-72.39240719307817,868.7115375790918
-483.59123655886566,-80.12236594555736,848.7577307235398
-487.03583792630513,-79.99000678111283,860.4793685917211
-467.9865193516645,-72.4697016820219,852.8896208185263
-456.53510627992233,-88.03393615556791,853.1139583853814
-483.15479801971117,-95.46042736306487,864.5143856464747
-491.84379987049607,-80.19966043450108,832.9358139629742
-491.4889386283798,-87.83447966430943,844.7400488444067
-479.54704205819525,-72.38047651338634,852.7162690623201
-483.8645205039438,-60.88134072287683,836.9147466260141
-483.40054962703886,-72.35070079996737,852.6591649543933
-487.1989925203817,-83.89297058628586,856.5656977663118
-494.71532072624194,-95.3712021944293,864.3410338902685
-487.8811826668639,-84.06397699520224,836.9331015178476
-487.8811826668639,-84.06397699520224,836.9331015178476
-499.46821799493205,-87.84335119536235,836.7719863561972
-495.5066205075128,-72.39821957549215,836.779124369688
-491.1616097240139,-80.02865402558469,852.5684102114382
-483.50965926182744,-87.82560813325652,852.7091310488292
-502.88528702462105,-83.84229069050085,848.4813876298227
-495.07018196835827,-87.73638296462096,852.5357792926229
-495.2873815217225,-99.3767494506279,848.6476013725381
-471.51269801614217,-83.94354851044955,864.6500079028007
-475.6119571923134,-80.11349441450446,856.7257932117493
-475.99333105596725,-95.65682470568443,848.9239444662552
-483.45459458632666,-80.0882054524226,852.6836381435047
-475.4202505442736,-91.65127744948582,864.6173769839854
-483.37301728928844,-87.79144764012177,856.6360581850072
-498.868624861701,-79.96910259874677,852.4531822793717
-475.4212702604865,-72.34182926891447,860.6272274426029
-483.2914399922502,-76.18524164724957,856.598328685127
-495.42402349426163,-80.10146176319131,840.7305246949775
-479.328822788618,-80.04955820795074,860.5945965237876
-479.00149388425206,-72.24363059760469,868.4229578908191
-463.8332152162054,-68.56235309713308,860.7883426042533
-491.3522966558408,-87.80031917117468,848.6669759805848
-475.80264412414033,-68.57571137952309,848.8352291557261
-479.82032600327335,-72.44889947127716,844.8634345061771
-498.3506090255083,-83.7010599950034,868.1710879862135
-478.9474489249642,-64.50622791677077,868.3974649854946
-487.44474412770927,-80.0925902321384,848.6996068994
-479.465464761157,-80.08371870108549,856.6686891038224
-487.089882885593,-87.72740946194675,860.5048614970455
-483.8910331254813,-84.05949024386514,840.9171327619524
-479.54704205819525,-91.68992469395769,856.7064186037027
-491.5429835876676,-95.57198431676466,844.765541749731
-499.0868441312784,-91.60946908475373,848.5639846430739
-479.00149388425206,-91.55307877817604,872.4120877159888
-483.2914399922502,-76.18524164724957,856.598328685127
-487.4172117899589,-76.22388889172144,848.6873703048442
-494.9060076580688,-83.83341915944794,856.4494501180322
-506.82037189050294,-95.41872096995407,848.4609933055632
-479.5195097204449,-87.82112138191943,856.6941820091471
-479.65615169298394,-87.85538384667548,852.767254872969
-472.68537166106677,-76.51389618269236,829.2852299205132
-479.792793665523,-68.58019813086018,844.8511979116213
-475.99333105596725,-76.34737652511308,844.9337949248726
-502.6405551335064,-87.6426710446483,856.3464587805215
-498.2414993907196,-87.5356008422856,872.1112714331604
-498.5412959573352,-72.16327696002203,860.2805239301903
-476.21155032554447,-87.98774301112002,841.0456170047877
-491.2431870210521,-91.63486001845688,852.6061397113184
-488.09940193644115,-95.7043434812092,833.0439038815499
-487.44474412770927,-99.40203841270976,852.6897564407827
-483.4821269240771,-83.95690679283956,852.6968944542734
-498.95020215873933,-91.57530859161896,852.490911779252
-471.78496224500725,-84.01197146834038,856.7971733466577
-491.21667439951466,-87.76605670641861,852.5939031167628
-478.91991658721383,-79.94687278530387,872.3743582161086
-468.31384825603044,-80.27562929236795,845.0622791677076
-482.6643145212688,-83.75163791916711,876.2553981227026
-479.3563551263684,-83.9182595483677,860.6078528345562
-483.6463012343666,-68.55042241744124,844.7930740874815
-499.4957503326825,-91.7121545074006,836.7842229507528
-475.58442485456305,-95.55413928303754,860.7037061585761
-491.1616097240139,-99.33810220615604,856.5585597528209
-483.26390765449986,-91.62588651578267,860.575221915741
-483.2363753167494,-87.7571851753657,860.5619656049722
-495.2058042246843,-87.77054345775572,848.608852156445
-494.55114641595253,-91.46823838925629,868.2547047156778
-475.6109374761005,-99.42294259507581,860.7159427531319
-475.3937379227362,-87.78247413744755,864.6041206732168
-495.2058042246843,-87.77054345775572,848.608852156445
-495.2058042246843,-87.77054345775572,848.608852156445
-487.7445406943249,-84.02971453044618,840.8590089378127
-495.9420393304544,-95.67905451912733,829.0017488133054
-490.88934549514875,-79.96023106769387,860.4212447675812
-498.9777344964897,-76.13466372308588,848.5140185486381
-490.97092279218697,-72.25698887999471,856.4698444422919
-494.74285306399236,-79.93045535427493,860.3631209434415
-495.47908816976246,-87.83896641564654,840.7560176003019
-502.66706775504383,-91.51137238506524,856.3597150912902
-494.8244303610306,-91.5366613471471,860.4018701595346
-479.5195097204449,-87.82112138191943,856.6941820091471
-495.26086890018513,-95.50804811021094,848.6343450617694
-483.59123655886566,-99.43181412612871,852.7468605487095
-483.3454849515381,-83.92264432808349,856.6228018742386
-459.81553333707234,-83.99861318595036,868.7502867951849
-495.2058042246843,-87.77054345775572,848.608852156445
-494.79689802328016,-87.66796000673014,860.3886138487661
-487.44474412770927,-80.0925902321384,848.6996068994
-499.33259573860596,-87.80919070222758,840.6978937761621
-495.2058042246843,-87.77054345775572,848.608852156445
-499.5232826704329,-95.58085584781757,836.7974792615216
-490.8067484818976,-106.97332932244957,868.3627946342533
-487.7445406943249,-103.33906073939623,844.8491584791954
-487.66296339728655,-91.73295671814535,844.8114289793151
-492.034486802323,-87.97132558009108,829.0343797321207
-487.49878908699714,-87.83009488459362,848.7250998047244
-499.1684214283166,-103.2156750776259,848.601714142954
-503.0484416186976,-107.05490661948781,848.5568466295831
-494.74183334777933,-99.23990353484626,864.3532704848242
-475.3662055849857,-103.22281309111675,868.5820336200436
-479.4379324234066,-95.52436356961859,860.6455823344363
-487.79858565361263,-91.76721918290141,840.8845018431371
-502.85877440308366,-79.97358935008388,848.468131319054
-514.3367000963632,-87.58760636914747,852.2471996043502
-534.3680053841017,-99.21594020384128,832.3627334512805
-503.18610330744957,-87.77941498880863,840.6407896682354
-514.3101874748259,-83.71880305710921,852.2339432935814
-506.41248540531177,-76.00668933835715,856.2506054565016
-494.55114641595253,-91.46823838925629,868.2547047156778
-498.731982889162,-79.93494210561201,856.3790896993369
-499.2775310631052,-99.3811342303437,844.6625504122204
-499.14190880677916,-80.0375255566376,844.5993280070159
-511.24695997104016,-99.39449251273372,832.7094369636932
-523.3805631892644,-84.0013664197254,812.8525031483739
-530.3238108834313,-72.1647045627202,832.3321419648913
-518.3543819754963,-91.46069248928025,848.2754049548012
-523.3795434730515,-103.31050868543286,816.8426526897566
-519.2537716753428,-83.96271917525354,820.7634615286566
-518.3268496377459,-87.59199114886327,848.2621486440324
-518.4910239480354,-72.18550677346495,840.3583282772405
-522.1813769228024,-48.943421045922925,840.2247454533403
-518.7908205146508,-56.813284862822684,828.5286004904837
-546.1467473602097,-72.14828713169126,820.3209046922243
-571.7569200491504,-90.90729250049712,863.1714193939827
-546.5821661831513,-95.42902010370514,812.5435291358416
-534.8595085987571,-72.30593525821764,812.6414218922874
-538.2215129529453,-60.56737010090093,824.3253302605885
-534.6953342884676,-68.40297145304463,816.5550927176967
-535.4856143535254,-84.04888519525018,796.9734822798816
-526.8241448404909,-103.17794557774573,828.5642905579377
-538.3306225877338,-76.04227743419008,824.3763160712375
-569.6491666369251,-68.20361693340745,808.182202892935
-548.3921624611871,-36.95798259344425,859.4147848653721
-516.8553991424187,-33.15627660821993,879.4980956799725
-498.3240964039708,-60.52291047401509,864.1687018502753
-479.62861935523347,-64.67723432568717,848.7648687370305
-518.5175365695728,-76.05420811388191,840.3715845880092
-529.7242177502002,-44.981007785533286,844.0231883466831
-545.5206416054413,-2.477023244431075,824.0204351129082
-557.0271193526843,5.349696379497586,823.8215904513775
-548.9377106351303,-17.785380328654536,839.7189662117034
-546.6647631964025,-68.41632973543463,804.6019792691695
-554.4808879688783,-64.52233943293582,800.5475876063692
-561.8340615806621,-33.478812846384855,804.2573151891829
-552.5179342588958,-36.99662983791611,851.5038264850893
-556.8068606506811,-60.24758709651105,843.6693468207798
-572.5492395466342,-48.624963672609915,831.6203800482326
-569.1046381791948,-48.75732283705445,819.8987421800514
-555.2171230746484,-72.43074852268614,780.9404842632297
-546.4750959807886,-41.335318380894606,804.5142836748533
-542.5940560741947,-37.496290782275295,804.5591511882244
-565.0594239623114,-60.324881585454776,827.8474300602144
-596.4055003492529,-56.3549224250891,811.6655534764676
-604.0034058521514,-79.43936002610475,819.4796388165175
-569.9764955412909,-56.699994391560836,796.3647117007338
-549.9737423075159,-48.94036189728399,816.2614144483591
-550.6008677784972,-22.064517444795115,792.613175753188
-558.8258987523773,-18.27311059332188,776.7790223980668
-550.846619385825,-18.26423906226897,784.7470848862762
-562.7344709967217,-25.980737560736852,776.7463914792514
-559.2623372915318,-41.55384356533577,769.0016468416841
-545.9295478068454,-21.889024284541613,816.2308229619698
-545.7929058343065,-21.854863791406856,820.1567303819347
-549.4557264713231,-33.362871112969266,827.9901903300312
-572.6318365598854,-2.302937292551483,819.6886806401778
-557.4635578918387,20.687798585653617,808.0649355284426
-557.4360255540884,24.55649992607058,808.0516792176738
-561.0172688940668,5.345240219646873,819.8375592072726
-549.2385269179588,-2.4130666435530994,827.8892384249464
-546.038657441634,-18.05448343725941,812.290639515023
-558.3894602132227,-52.920620191400744,796.5248071461713
-550.381628792707,-68.35239352888092,808.4707825812078
-568.8048416125794,-44.82019853874667,827.7383204254257
-576.4567920747656,-56.33269261164619,831.5877491294174
-549.1273778507442,-64.17583986376592,843.797831063615
-557.3258962030867,-37.206283491304376,823.9602718563425
-571.0135469298895,-29.92683536171884,760.9367113132416
-559.0441180219545,-29.913477079328825,772.8898247617689
-580.1930322791168,-26.374857877052822,717.6171271535133
-444.0578586979245,-105.33362565198107,661.0524491034146
-546.2558569949983,-87.6231944649804,820.3718905028732
-540.9859636063284,-2.3357619574472426,843.711155185512
-556.4265065032403,-25.39491059638103,847.4820657411043
-559.7344658981406,-5.918881575257607,859.1404812040811
-550.1124237124809,66.88196274976676,788.3956294963112
-535.9516246628564,23.967511841454527,761.2803556770151
-519.1467014729801,8.749827922889061,804.7539169849032
-529.2062019140074,-29.403517001218564,855.7519642283554
-547.4111954643023,5.7690342777604995,878.908699708871
-538.6691683704425,75.48337097785686,894.5032197539426
-519.7269199981646,-48.32771639652685,910.9033156072666
-531.0967557728685,-1.84801129845564,906.6510989991485
-544.0491911101142,32.649273707127314,859.2455119740177
-560.4156363284098,-44.70874355666819,847.4871643221692
-548.5726522308843,-126.82312512427794,761.5995268516773
-581.1168951680747,-215.83925193618617,730.0158565871119
-632.7206538420359,-172.35447374995542,787.9653092544346
-610.3919279264582,-110.94104510714669,752.7708238797144
-592.5785054019467,-98.87219386844643,819.7162129779283
-607.855893704782,-98.71903249325715,823.4106448175473
-573.4741221518052,-141.54272865861432,824.070401207344
-604.6825368499947,-195.46736143331313,823.7848806677102
-614.1618187658376,-215.16114065455585,776.6138283715643
-626.5309764292598,-239.44262311798627,646.9977005399398
-673.00148368709,-110.7044709457358,724.3605104699363
-634.1676311482515,-87.75514574293975,728.7891379828994
-698.4688961062137,-37.73816746799366,641.3158418012267
-719.1365043108503,-17.634564300755102,707.6565391851448
-769.9683378115872,13.462599358598505,679.3176059102752
-777.9200848403891,-21.296365221558844,679.3165861940622
-801.4663519142624,-107.18339086232302,573.2885338010433
-812.2824817853192,-84.7319930863241,478.8597533306482
-851.3743225260412,55.450842030662876,544.5203000005099
-821.7383102282636,168.90171465281216,709.4155496525318
-797.652613277725,86.86880841061934,643.3338601867101
-784.3371589686591,1.2616642788312014,600.651598660093
-602.5258370595463,-9.678248943319076,403.2559538680386
-617.8429942946879,-216.08500354351384,670.596992856888
-896.650742098474,69.6283644261802,791.044852217628
-642.8607118638884,254.89336317702785,962.9802226040493
-525.7707779924847,-5.370243661189091,949.9135790509501
-661.4256652373646,33.09733701110981,806.4650007902801
-662.1629200593476,-12.557805162823188,461.2421163190285
-714.0929879214616,-15.496933203489471,519.3435067020849
-627.8657849520479,183.16244589130847,743.6678172464603
-518.1341232734931,319.9492181325937,992.101278214273
-507.09875441664593,251.2101482157516,1102.384606364049
-544.1837936502272,-44.62257753667155,871.2781632871573
-598.0686574926199,-60.634059541229675,764.5597630179522
-571.7212299816962,-111.20413189009501,757.2759301086509
-549.5923684438621,-14.087685397153974,820.0741333686836
-555.1722555612773,-21.21835693126603,882.8080945072986
-650.9919289461744,33.7219131915588,885.1126531486289
-727.1270005557454,122.37818215190714,781.6328715718416
-773.7698398535689,137.0865688079008,655.2961510811542
-721.5379359924134,105.34382281411084,613.0146380262373
-725.7187724656228,78.25822273661241,609.1193220926617
-731.5178985688283,136.72456955229362,652.0055268618744
-677.7054345775572,116.96450877720731,652.8784039401835
-679.3655325722852,-41.789907868640164,637.6907506640903
-694.9692300632735,-107.37101864551097,645.5272697608257
-711.9740176308934,-37.1403078523247,696.056247546308
-702.4672033773002,-32.88645969826598,747.2041930730678
-685.6092549443491,17.561552619905882,778.6828325676964
-710.6106570541419,-17.488846853920556,731.3312905018533
-680.5188316091633,-44.94480785997257,716.1762681445755
-728.4791442541541,-17.98544864964081,660.4222644837943
-736.4319109991691,-14.125618840276754,652.4409456848159
-716.0192318477768,-25.57274910392438,688.1065399499321
-701.6137009070377,-14.359235824669996,656.8879280896127
-685.8743811597234,51.255831502092974,652.9783361290554
-671.333227962658,62.503505274482116,625.6856316887012
-667.6979396633918,31.524016866106166,625.8447074179256
-702.1337561756565,47.30086217005808,629.199573758623
-757.7817093502879,63.735220488138154,687.1806376285481
-719.6290272417187,67.20378518658258,675.9657987182168
-693.3366644062959,66.82445075535479,656.738029806305
-612.3599802175056,93.2464195214472,653.9368693692546
-561.4180173657671,39.00526683424003,690.2051159162406
-558.5832062936885,113.09264631653012,756.7161059077259
-582.0407580570328,148.93975006755622,850.4351638938883
-595.108421326345,114.8904060000102,924.9213543870742
-581.6043195178783,152.91154471710524,862.2016692754408
-543.043750924118,214.4106295218041,850.7981828657086
-558.976816751898,237.57144386717178,830.8576323209253
-520.4692734012125,252.71422962989402,827.4589181830697
-470.0748981558433,256.2648814834832,836.0510469936218
-155.1222894668414,48.88488933529799,853.2424426282166
-319.4628134990033,282.2197182524104,842.1438513661648
-379.6637995645812,270.4776860599696,774.5631790672657
-556.1042761799392,233.43343547490738,803.4425619350136
-718.2595483676894,293.5304104867616,891.0769732783367
-764.0641809384449,259.24041339295275,910.1303707178294
-716.1303809149915,228.41235284220403,965.8966109731663
-680.9879010671331,293.91280406662827,966.2025258370597
-549.0060316213999,249.66527815309001,893.7608663508946
-447.496341768086,140.0926922037597,844.630939209618
-372.6094028031999,138.95061004522444,782.9625815135648
-415.1907124247322,247.36275894418588,754.4859865499433
-579.7443571454065,295.27208577852787,775.4075040916114
-705.7343741236815,211.58703532806823,824.8229517725217
-739.5451045973906,316.34452131971676,827.8871989925206
-712.8683087496751,177.03293173509815,848.3804357247379
-695.2792237920188,-9.904615745438045,727.61136575691
-655.536804107417,19.99959211351481,645.6883849224762
-695.9257238710468,-11.063105137840141,598.0931306817313
-718.6358236502782,-68.71021194801487,621.4945980533619
-782.5373598527531,24.88444066016428,647.6941667134037
-850.6207522446504,130.0127974384729,662.0181203571047
-844.3291032105766,25.326385666868912,642.8423569720547
-815.7627732202129,-64.30279453228168,596.4779002003743
-742.8489851274392,-10.877006928971669,577.7661076922293
-718.0015601658059,-23.20456017090444,519.3108757832696
-707.2833230511949,-162.53358690276497,523.865948106642
-732.6324483896133,-21.89289920615093,652.5245624142801
-732.370381322878,79.57885720404013,750.3010712118819
-730.8805759357172,142.7398754926504,891.3971641692117
-670.4776860599696,80.15856587111807,868.9654469161233
-647.1843086069148,40.407988456812475,771.3327181045516
-660.1642762819108,90.34593872525276,719.9492181325938
-644.5605787909225,155.92684555888098,712.1126990358584
-567.4261852926331,42.356462196570696,627.3100396159749
-582.1304930837749,46.51527279957988,646.6989236895373
-590.0047416803905,197.14683403608777,610.7508680334264
-584.6359358190616,380.0033650635029,727.9529706882576
-604.7559564173291,323.0063273391016,825.9599353499922
-545.1820958227325,361.62298032457574,869.8923689537203
-521.2442577230757,380.95883915506323,889.8084463093921
-468.2485864183998,303.0657767943182,879.0912289109941
-410.89974660052115,212.68526968944545,774.2909148384006
-411.60742965232777,150.71711542677673,766.6399840924271
-389.91296722122235,147.31534214028235,837.6193705291819
-434.55716274160903,284.23671692168074,966.001641743103
-451.8464511326498,494.42062274069133,1090.6170812662838
-409.81272911748664,482.41856291394106,1083.438279126919
-397.7229736964203,377.19404689674866,1009.4109609295734
-435.21080083412795,249.3155154920386,954.3350685504224
-458.12994243701985,136.5532572285133,871.9552548525746
-458.1850071125207,148.12499681338684,867.9916179327295
-488.87846512315633,283.56268450490234,843.5265865509629
-539.3013924224889,295.4535952644379,830.9575645097971
-580.8619661148304,252.51130610351143,751.9876818281473
-591.8392111475378,135.8935008387166,681.5732181733824
-649.4511377483648,221.34877863490593,668.6483151738872
-801.1380032936835,339.01077330179015,713.0742914246966
-792.5785054019467,396.09754605293347,614.8949947229686
-748.0169068948113,266.88012726058344,482.561323183758
-782.0968424487465,217.09350287814905,509.6908730300358
-781.8235585036686,178.54313144651846,525.5229869527311
-776.1427194811686,148.0770701513769,584.5808711435608
-786.97414509542,141.62124680701362,717.8771547878226
-764.8707764629105,138.32246485803003,800.6363029168983
-740.5138349997197,114.28571428571429,730.4390388154977
-744.5845421219275,44.74698291465486,738.4621659792081
-733.8234769263714,53.177384733828575,824.9361402721623
-626.8817588065242,71.41419342996845,795.0798692723815
-502.106223837906,-62.468121121891784,644.3403200889193
-530.8591618952446,-154.39523180698814,722.712649069764
-642.9290328501578,6.718165734476097,901.0222655035104
-621.6761075392719,211.74815048971874,916.3475804683558
-545.4533403353847,284.31727450250594,877.9980931306818
-493.140878893404,264.1809384448309,835.6788505758848
-457.04088552155935,233.37327221834164,883.4189045188725
-475.1897946801406,218.35489183360272,918.5195760019988
-478.6262383178762,232.94091254403904,816.3786818128517
-375.2270143219143,115.12290129656918,712.3604900756121
-316.6412587376933,-57.043842698576995,548.9846175809273
-445.35085885598045,26.64324718430861,707.6840715228952
-626.6033762803812,316.7768809940194,974.7885363503337
-515.6562128759567,517.5273921267712,1022.8671360760302
-393.56457097989636,511.41113428132957,879.5072731258891
-491.94475177558087,473.0228977275625,827.1428061570465
-507.02941371416347,365.0920548811266,858.678549759602
-438.40149286453584,260.10105387670615,860.0602652281871
-428.692774800773,151.4135816002407,829.1751005695116
-455.7937725930874,69.49365991444581,730.9305420301531
-553.0298317978107,77.73561817746122,701.9736607302189
-598.0533617494251,83.25666766938762,846.4919212983027
-502.9699234702983,39.71743663738382,820.5911294886635
-392.7192262393376,19.168829314801695,783.0655728510756
-378.4085289064054,216.726405041477,821.8596564576079
-472.56810429657435,449.7305399907207,835.3617188336486
-518.6276659205744,482.02495245573164,944.4519790142405
-537.0467998755947,351.0821738310229,995.6376540408806
-487.02258161553647,179.75761345617516,918.4726690562018
-460.9474183334778,167.73719873759134,895.3557025079922
-438.20876650028305,171.32558009106066,883.9104077335279
-403.77294998801835,155.54853084386616,880.5545216766175
-392.02072063344775,105.30201444937875,896.5987365716123
-426.3484472271367,155.86362315367634,895.9145069927041
-469.06537910499515,244.93175549244646,867.501134434287
-484.26017039457923,198.7630842336578,883.1282853981737
-483.1038122090623,105.37135515186124,824.5914761921758
-477.41481545685843,89.35783371487716,769.7858086094641
-498.41077228207394,198.20224031651995,808.3504560680764
-523.8588100931511,241.2750531527076,843.1452126873093
-474.9899303023969,201.96091427755658,816.5377575420762
-403.48946888081053,73.5228645867855,794.4945521661323
-496.789423503439,16.10356237859004,781.5166239235622
-487.3927386008475,43.501297588881016,824.7352561782056
-513.0865280192522,128.992061509282,843.6856622801876
-540.3894296217363,160.0138681404965,827.4731942100514
-513.4403695451556,78.69914802710406,843.8498365904769
-505.86795694758155,1.3677657507915548,855.997715835683
-473.17789459193517,-10.985096847547329,801.5846389949678
-446.85901913497474,31.123166422784543,774.364334405735
-499.0358583206294,70.60321312578711,816.6203545553274
-529.4274803322236,94.12204983353134,823.9347789510181
-555.6382658706083,125.41693646658136,839.13568853788
-540.9064257417161,125.12733706209563,819.7345678697619
-513.932892476024,144.22764144738522,816.1492456649316
-509.5623887872006,179.08562047182272,823.9459958293608
-493.35807844676833,233.23051194852474,835.7798024809696
-477.72684861802963,264.0616316479124,835.9103261562309
-477.34343532195,202.3677810465348,859.6717533510425
-463.9739360535963,143.80649865142533,812.9738493777182
-476.6796000673013,116.57599690006272,785.403782127434
-482.1503775499279,124.92033467086111,848.0877771716133
-466.35293397847386,63.106565442837265,872.0806799467708
-469.4151417660466,40.16346050894037,899.5844656432117
-496.79962066556885,78.88799946974757,879.420597247786
-470.180948641993,124.93359098162982,860.0408906201405
-453.9225933422729,148.1973966645083,879.8284837329772
-452.68465785971773,66.41166963234133,821.2539450270991
-456.7553649819256,-3.127214696150062,829.2770721908093
-482.5837569404435,-14.217291327823467,864.2482397148874
-490.3733690913819,51.47374485680636,848.2121825495966
-485.53991424186654,113.48013847746174,863.7740716758527
-476.879464445045,152.27932066505892,883.395451045974
-489.31184451367193,144.42546639270293,859.6880688104501
-490.3213635645201,155.75859238373963,828.2379813697848
-507.2078640514345,159.36940749389447,784.802149561777
-518.413525515849,171.13387344302083,792.4439028618336
-545.1698592281768,144.36326370371128,803.9065328119185
-508.32547302085834,116.60862781887802,761.3813075820999
-503.32580442862763,105.28060040890622,796.816445983083
-512.3768055350197,94.41348472720044,871.2853013006481
-459.21899935248024,59.041568731422046,856.502475361107
-488.95698327155554,136.79085110613718,871.4933234080958
-499.9719578041432,137.01722810541827,887.0256407641755
-493.3019940550546,125.11204131890098,859.693167391515
-459.9011894989625,97.48935671202706,828.8895800298777
-457.05822069718005,147.4111954643023,789.5183370468
-494.09431355253844,206.0132665079309,820.1628486792126
-504.40058531710633,210.2787394268175,855.3155256892007
-492.78397821886176,159.99857239730184,867.4328134480176
-477.58816721306465,128.92985882029032,867.7652409334482
-485.0759433649616,102.01139023009897,879.517470288019
-473.8702819005471,128.86561669887274,863.8964376214101
-458.7835805295387,120.94140200782122,856.3005715509374
-458.5928935977118,109.40331305797598,864.1911356069606
-484.69456950130785,98.24486445422241,891.3104882911086
-503.82546537298674,98.42790351445194,894.9478160228009
-493.0011777722261,109.73981940825868,871.523914894485
-489.91143764690287,97.93262734980856,851.9871719700409
-503.21669479383894,101.4459575900027,800.7556097138167
-514.1776243671387,128.7187775642039,812.2733043394024
-498.30064293107233,155.74941493782282,820.2688991653624
-495.3475447782883,163.21781648167317,792.8160992795706
-537.5994860630287,163.57879602106735,796.1067234988504
-536.6450316876814,163.8184293311172,823.5921543034574
-548.2595993535,175.47990394273276,819.454145911193
-525.6841021143816,155.8554654239725,808.0843101364891
-495.5382317101151,136.13619329740536,792.9037948738867
-494.9111062391337,167.18859141500923,804.5826046611229
-508.063405954123,237.3899343812617,855.1686865545321
-472.8097770390501,260.4365405107759,867.3930445157115
-460.9759703874412,221.7974537686162,883.3995299108259
-509.07088557254525,171.4846558202852,839.6781775631842
-511.22350649814166,97.56838471853284,792.7997838201629
-476.13303217714514,78.09374251145907,809.0887306062724
-480.2873560288172,93.4957401355203,797.2008789953757
-471.37911519224207,70.5659934840134,836.6577781403437
-469.6354004680498,144.37957916311893,871.757429907257
-476.19931373098876,229.68801782463945,887.0694885613335
-491.94067291072906,241.31074322016184,875.0205217887864
-480.73399173010154,190.9275848531354,875.3580478552819
-466.0011318849965,171.3286392396996,859.9460570123335
-455.96814406550664,166.99382561833045,816.9405454462025
-471.51779659720705,186.38780827295764,808.7930129045087
-477.5891869292777,206.16724365609053,851.8056624841308
-438.5371151208619,240.75703731651484,860.1234876333917
-453.9786777339866,256.31688701034506,855.9151188224319
-451.10511744581487,155.63214757333037,848.4487567110074
-486.9573197779059,105.40092692203761,824.533352368036
-525.4108181693035,117.30509399234194,823.9174437753974
-483.48722550514196,167.0652057532389,800.8300489973641
-494.01273625550016,236.9290226529957,816.1349696379499
-488.30538461146267,248.9494373715795,867.1992984352455
-512.5440389939481,244.9858004517343,835.4534932928167
-498.13850805320885,198.27158101900244,816.2032906242193
-509.6990307597397,217.66964253848155,812.0397893266305
-504.61166657319274,271.0201750852738,725.5943670876395
-462.7961638276068,285.99674710528063,706.5470879454249
-506.2554491085132,256.15577184869454,792.338872091897
-513.3618513967564,206.16214507502565,819.873249274727
-512.6511091963107,152.27320236778107,851.4630378365702
-512.540979845309,90.51052092202741,867.3716304752388
-424.4303610305252,112.86728903346199,848.9922654525247
-413.0890773097848,197.68524419654014,825.3287310141588
-438.07314424395696,229.28726935293912,875.8679059617709
-466.66496713964506,237.81005746100865,938.2041777773247
-536.382964620946,284.5997358935009,917.3795332758895
-597.4374531567865,235.02215333472697,944.1042557856149
-570.2620160809248,121.87240291027008,862.4759729367319
-572.1953980207309,1.668398484701708,831.4562057379433
-534.0702482499122,20.577669234652,816.2644735969981
-498.8461911050155,136.30342675633375,808.552359878246
-508.8822380731443,256.49431763140325,827.6200333447202
-535.6110394477217,272.21120362203203,831.091147333697
-544.2714892445433,214.10267522548477,815.4588977887455
-557.4125720811899,182.90037882457312,776.121305440696
-627.5649686692194,148.48087777171614,759.4876945746
-609.65977168554,109.37068213916068,728.4913808487098
-599.6900062712548,140.77488235024194,787.4034456210837
-611.6339422738653,202.55846797836165,763.4686666700658
-603.4099310161984,256.6952017253598,767.3344108334652
-581.5992209368134,283.22107957355473,724.4002794022424
-561.7596222971148,306.3869924999873,736.3931617830758
-562.76812163175,279.1014260731239,712.9223537089629
-573.810628502088,314.07769217826683,720.4886480092591
-542.9550356135887,298.3985356875182,724.928492400565
-514.6171220549321,279.22277230246823,768.587642059215
-518.0341910846213,244.6054463042935,788.2763226993928
-492.26800181509486,233.5048156098158,867.1921604217548
-434.11052704032477,225.4235646219657,879.8651935166444
-388.0601428622415,217.2943869721057,876.6571663106159
-399.51053621777066,174.93027690393765,888.4022576516955
-406.15398734532187,152.08557458459313,923.7017737963525
-402.69103108604884,179.9870496040952,1017.8501323081788
-402.0914379528178,226.48101033482388,1025.5489897161622
-396.4840184976522,179.55163078115362,974.7742603233521
-392.1665400519036,187.3616372563516,986.5866529344885
-432.09352837105445,241.37702477400543,934.7860890314228
-460.67617382082574,245.04392427587405,887.2499783310307
-472.6445830125477,187.10160962204222,887.2662937904382
-529.0471261847829,148.2840725426114,823.7583680461729
-588.2120805779753,167.6974298052852,779.6362672268309
-634.9171225647902,140.9054060255031,771.1777212401789
-617.830757700132,120.89959364308913,712.6317345882642
-621.6852849851888,178.85822375632864,700.6041818561896
-629.6115391086662,205.8959991434384,688.6204769212728
-580.0349762661052,228.55001453095605,669.6639525220132
-567.6015764812654,197.78517638541197,701.3506141240894
-587.1128265003849,163.1148251441624,701.1752229354571
-606.6526285734681,124.57669030708756,701.0130880575937
-577.8517638541194,132.55087109257494,752.4373766780706
-526.6926014490168,128.56887928089614,784.6135020623761
-453.04053881804697,112.66538522329238,801.4694110629013
-393.4676979396634,189.9017503428796,837.4225653000772
-409.49151851039863,264.24008198518356,915.4247372956107
-426.93172490096015,272.57116344521324,966.1545991750497
-370.3558299725187,213.8885348207594,943.6525215032658
-368.492808451408,201.77328649436865,888.7764935018586
-352.7524689878807,228.77027323295928,892.8461809078534
-345.29120545752124,271.1292847200624,877.116038606456
-341.1644139435996,232.54934151825552,893.0072960695039
-344.25517378513564,263.665981757277,908.5538894525654
-405.23012445636385,341.5508863883182,911.303044362754
-424.1438207746785,372.6828223705343,914.8394201893615
-436.8759974099209,341.5835173071335,887.2805698174199
-442.228487811842,283.3087751678708,856.000774984322
-441.04459728857466,155.16613726399945,805.4299888341076
-447.96031264499095,132.2531139583854,832.8766704226216
-486.49538833342683,151.86021730152498,828.3083417884803
-493.65787501338383,190.67469523231688,835.9195036021476
-524.8122447522856,183.10738121580766,827.6292107906371
-544.6793757297345,175.3820111862869,811.6584154629768
-529.7823415743399,121.06580738580453,808.1403945282029
-499.7180484671116,89.74165489744205,792.9986284816936
-510.18645510954303,70.79512371706954,828.2267644914422
-524.5379410909944,86.62846129922045,855.4307536212672
-510.2425395012569,101.67651542575703,820.2729780302142
-498.57188744372445,78.4433012292679,828.374623342324
-502.6171016606079,90.01085997766822,820.4259354621609
-486.2496367260992,128.75038876680622,840.1635624805618
-493.9556321475734,128.80953230715895,840.0483345484953
-513.3598119643304,148.23308673196252,831.842678182662
-521.6409273299241,202.21584333080108,804.0645888249301
-529.2663651705732,213.88139680726854,803.9106116767705
-499.44680395445954,167.04787057761826,784.8918845885191
-468.8644950110385,151.3003931006001,781.4788944236819
-444.1078247923603,190.1515808150592,820.9643456226133
-434.8477818623078,236.82399188305897,856.2679406321221
-429.4402267848858,264.21764822849804,895.5025416426608
-401.8130554266748,318.24017375964274,903.5827729142981
-395.19611692066104,317.9067265579989,872.2866626217924
-328.78913798289943,367.83101262918535,888.8111638530999
-306.1310437305298,321.19327191242684,885.3828779450679
-294.21464006566976,274.8502291812189,905.341783381685
-294.159575390169,243.96914338739535,913.2955698429128
-311.9821753605972,275.3753830309025,948.2443036103053
-322.23542188209024,364.6168671258789,967.4129289818645
-308.0491299271413,383.4989522415912,928.3149699438648
-264.36958594423174,328.4332570245701,866.3610917081777
-271.31385335461147,340.2691031086049,885.8407305246951
-297.5521712307465,367.69539037285926,901.0538767061129
-245.5109543014179,308.8720409110145,858.861078961725
-265.8410364395589,254.68738050200633,839.1163139298335
-251.43550549881968,207.97316106927445,819.866111261236
-358.1885761192661,294.0545446202322,833.6751082173832
-347.20113392442886,289.96038402512585,818.1550274558591
-409.6301999153636,399.3718548128057,883.5698225183932
-505.202082260507,353.9649115651115,913.6881605849093
-544.79766281044,222.69072517118488,909.6133745978497
-530.8540633141797,110.20786915001557,890.5783320501905
-541.376514915899,44.90534484253033,933.8122600480287
-582.6474892037547,87.99386130839788,956.5957793945946
-554.0016213487787,87.20857785278358,894.2340146737164
-509.95090066434517,129.77928242570093,933.9958089663647
-450.12313073271713,140.4302182702554,879.9121004624415
-496.3121963157654,245.07247632983743,859.2434725415917
-558.4057756726304,357.4329664054494,822.6132267389987
-612.709742878557,384.7939918320732,806.009187643079
-663.7506182029542,399.39428856949115,663.9086742159658
-682.4909627650626,352.3364247729857,577.4448970851413
-653.733945842872,270.4787057761825,534.9808548281014
-676.654107161977,196.33513993055735,444.6217617637012
-692.2843172745025,107.57598160431952,456.460666996375
-679.9692045703681,143.4302233688365,582.1121381919412
-587.249468472924,143.77182830018407,701.2384453406618
-526.9934177318453,163.25044740048847,768.7936247342366
-494.71939959109386,136.34217597242687,816.4633182585287
-478.67824384473806,128.65657487521224,836.3528829926632
-483.3332483569823,214.4432604406194,906.6368229721669
-423.4881432497336,330.36663896437625,942.4635323989335
-346.91969224964697,400.15703629679865,1025.793721607277
-304.6677509649065,361.17634462329136,1030.4844161869753
-360.24942258569445,245.32536595065594,1006.4915134118176
-411.0792166540053,179.8759005368806,998.1023081276483
-434.96402951058724,206.89634074836977,970.1804387838865
-416.57140817710433,295.35162364314016,926.9872994345675
-432.39638408630884,372.606343654561,899.0175034287959
-437.31243594907545,356.9210688665345,871.523914894485
-450.3178965293959,345.0627890258142,832.1231001412308
-493.0878536503292,349.15592990470753,819.6947989374559
-545.9183309285027,334.40573488398184,854.2743954357504
-561.4690031764161,373.1090637475591,842.137733068887
-525.1426328052903,349.0855694860121,783.8935824160137
-430.0041298506626,255.35631433771982,769.9357068927718
-437.41134842173426,240.04323596743026,781.6502067474623
-406.17336195336844,201.2889212932041,801.8721989670275
-342.6368841551397,236.0418695477049,849.8019201256292
-331.2945807181861,205.00272774086974,850.0772435031332
-402.3045586413302,364.4598308290803,879.8723315301353
-467.13913517867985,350.68346479174846,1012.3844534066171
-430.3651093900568,151.99074097678619,891.9427123431549
-519.2558111077687,12.584317784360614,800.8147532541694
-551.5369672620111,5.730387033288636,870.9977413285884
-545.0852227824997,20.803740319069206,831.7978106692908
-552.7667450148624,101.96958186536688,815.7097479771381
-562.6365782402758,129.51619564275262,858.6398005435088
-556.575385070335,191.83105341783383,909.540974746728
-519.4322220126139,206.63223424920847,866.8760483957317
-495.130345224924,194.16722326176628,792.7141276582728
-534.5923429509568,217.40349660689435,760.6481316249689
-560.1127806131553,224.70364497560334,689.5983847695187
-590.667557218826,225.01057955570965,696.9882681649698
-535.8455741767067,174.60804658063662,733.3013822253267
-528.3567783085967,143.59949626019082,733.5185817786911
-472.0551870414464,162.08593148526768,687.2040911014465
-439.86376591394617,142.88059633004139,730.9213645842362
-449.0789413306277,166.72971911916915,793.4972697098399
-453.5422391948321,221.66896952578102,875.6619232867495
-430.67612283501506,268.7655825383796,970.0366587978567
-379.92688634752955,283.99096531435305,986.4438926646715
-346.44552421061223,267.9742827571087,955.6025758031541
-344.22662173117226,228.91507293520215,916.520932224562
-353.37857474264916,178.40750919019237,885.1575206619998
-352.86055890645633,213.29505998480624,892.8961470022895
-343.70962561119245,244.49327752086597,928.2497081062343
-345.2728505656876,299.16332284725166,982.9870547026765
-341.28372074051794,318.4777676372666,982.9819561216116
-377.3826943961496,291.3563755206926,947.2103113703457
-387.51561440451127,275.36008728770787,880.39442623118
-419.76108049129937,228.89977719200752,848.6710548454366
-446.8172107702427,236.81073557229024,844.3148271835948
-488.4695589217522,283.6656758424131,855.3063482432839
-476.6908169456441,275.907674894077,863.3580274609577
-458.4593107738117,244.6034068718676,840.1890553858863
-478.6527509394136,209.7627630230507,820.3810679487899
-487.12251380440836,178.73585781077128,804.6601030933092
-510.8982170262017,201.92114534525044,780.6784171964944
-484.25099294866243,193.9071956274569,773.2548831660149
-488.21361015229473,178.46155414948024,773.2477451525242
-549.8146665782914,167.3660220360674,776.2875191834113
-545.3330138222533,140.46080975664475,799.9928619865093
-571.5978443199258,144.7089474999108,819.2083943038654
-552.3588585296712,179.30995803867785,811.5309509363545
-494.203423187327,209.84739946872787,816.2236849484789
-476.5725298649387,209.288594984016,769.3942375836806
-464.21254964743315,200.67913099784332,683.2659470869257
-471.2638872601756,139.11274492308792,714.764980905814
-489.38526408100626,127.96316785038726,749.8534157943845
-493.13985917719106,206.25289981798068,847.6482794838198
-479.20849627548665,272.41004828356273,902.5783524445147
-396.0679742827572,252.03611834826373,860.7220610504097
-374.25420505473335,182.01526515170832,837.7366378936742
-409.26412179490455,232.4055615322256,817.419812066302
-437.23085865203717,349.2181325936992,875.4763349359874
-414.6920711965861,388.50881799595174,962.0227090800631
-406.81272401890556,387.4962397964647,856.1792253215931
-374.1206222308332,317.2153589655999,813.7355773888128
-414.9000933040336,294.77446426659463,864.219687660924
-418.61695890033803,294.8387063880122,868.0884909729623
-374.6478155129428,325.80340891130004,907.8890344817038
-344.6936517567161,394.8606302865913,868.8583767137607
-348.3840047314833,379.4833097948841,876.7050929726258
-316.3842902520229,410.43475600740317,904.5515033166272
-336.5522375123004,476.0096465153748,864.7825710104879
-343.5495301657549,441.49021327364596,892.265962382669
-308.7853650329114,394.90039921889746,904.7177170593425
-365.2164602591099,410.14209745427854,829.2536187179109
-397.4343940081476,406.1692830885165,789.5377116548466
-360.16274670759134,387.2413107432202,868.6523940387392
-375.37589288900904,351.6572937751424,770.4292495398531
-408.3830869868916,235.49122279269682,731.0804403134609
-388.0234330785743,139.06991684214285,782.7311059332189
-387.2688430809706,194.32120040992595,904.2190758311963
-404.8824012277384,261.5337551559401,1048.9412796418758
-382.71682990623714,280.4260374337822,1017.8103633758727
-304.411802195449,275.2815691393086,944.4336241224069
-358.006046917143,287.3733639928008,951.4390745055651
-397.7759989394952,272.9097092279219,1029.3831226769591
-359.40407784513576,230.0908057287657,1034.0330286081385
-274.7360209653654,194.6515884629308,1039.3457500777536
-74.19057476304346,100.45999398367437,1066.215272289722
-25.123768055350197,217.66556367362966,1235.304614725722
-19.454859712542003,270.1646331825853,1054.6822819209415
-181.24639912712294,317.7711043016729,1044.2505850621774
-411.6624943278286,677.9154961174306,878.6741649798862
-489.50864974277664,903.3023509557293,919.9186266462044
-483.0171363309592,743.6035751250428,806.7413438839972
-300.4257315189183,372.70525612721985,594.872866881147
-269.05008336180043,218.12953455053463,642.9596243365472
-414.4096098055912,345.1025579581203,867.9824404868127
-429.5615730142302,446.6928053922594,965.5284934202813
-391.4649752973748,558.2803505784341,930.4002895994046
-417.6706622546946,681.2662835932761,815.7790886796205
-308.78026645184644,525.2099340753468,766.9163271861441
-193.85926896544694,85.75792956820118,617.0608719593338
-317.5447273023918,-276.4022372573713,679.2237920186814
-593.4666782234505,-270.0147348992776,718.2401737596427
-719.9971447946037,-69.92438804280769,915.8254857673111
-635.2597472123509,65.57438064986515,999.0547230705696
-466.8342400309994,84.2883145620574,1076.0861252313482
-362.8925270097332,159.7008152631123,947.8721071925685
-329.6936262638108,72.10678468182306,701.413836529294
-243.35221507854368,-41.14677285311498,659.9185246745832
-220.23116966548213,-22.015978953057367,656.275078645613
-256.966446238012,1.904411802195449,702.7394676061652
-384.77563694023956,58.78398841602383,892.9399947994474
-449.32673237038136,382.06115238129235,1075.3417323958745
-356.4621965706944,912.5154869399847,1200.5322918631746
-271.6014133266712,1188.9381185216155,1036.0316723855751
-72.109843830462,1016.2532567186553,937.5637959955745
-132.2990011879694,825.8702003232501,796.0180081883212
-236.28252257396773,544.7701304726895,854.2784743006023
-374.5866325401641,405.92251176497587,782.031580611116
-441.6574467325744,403.1702977061484,847.7553496861824
-459.4351791896316,466.48039850509605,988.5618432390268
-415.34672900531785,392.2063089842097,942.3768565208303
-400.092794175381,214.4004323596743,974.6019282833588
-455.69486012042853,147.7528003956499,828.783529543728
-427.07346545456403,27.24243243105444,790.3728592332754
-412.7586892567799,51.01538241907278,865.0742098473996
-539.4523104220095,74.29071089515789,761.058057542586
-672.8250727822448,172.25556127729655,782.2773322184437
-664.219687660924,241.93582925871735,793.9449251273371
-504.4189402089399,201.55404750857838,745.4553797678107
-347.14504953271506,239.76893230613922,830.0989634584696
-367.3252333875483,445.36615459917505,872.2744260272368
-455.4827591481291,429.72472760830664,776.8157321817339
-455.66018976918724,204.6937537283374,706.9284618090786
-475.42534912533847,159.37144692632043,812.7505315270762
-428.74885919248675,220.91335981196437,813.2420347417315
-330.7510719766689,320.99646668332207,841.8440547995494
-305.39582834097274,406.33957569608384,889.0314225551031
-370.7953276603122,403.0112219769239,891.987579856526
-361.52304813570385,232.42391642405923,861.3053387242331
-225.11255117700745,76.29639071446417,828.554093395808
-174.498936945848,33.55886056910362,853.0038290343798
-337.3822865096644,119.50972044480024,803.1784554358524
-338.12871877756425,232.3137870730576,869.5058965090017
-406.0316213997645,446.617346392499,977.6549586250147
-452.5735087925031,481.65581518663356,961.1406545558373
-436.6333049512321,453.63911223506506,871.2078028684618
-403.41400988105016,374.77018145850013,734.6096781265775
-496.5049226800182,353.157296324433,831.4042002110814
-584.8174453049717,405.1220345377882,939.7949350695703
-568.7671121126991,392.58054483437263,849.8121172877588
-459.50655932454004,392.08904161971725,890.695599414683
-425.1258074877762,387.8847516736093,883.3760764379274
-454.90661948779655,298.5647494302336,820.4371523405038
-416.72742475769,305.9016075826098,809.2100768356167
-376.47514696659925,336.93055222731516,852.8794236563965
-440.9742368698792,326.1042251941285,883.3465046677511
-558.0223623765507,237.8110771772216,858.3440828417451
-611.1505967889137,180.504045724075,893.0633804612178
-631.5918279942694,246.01061524577713,845.4405938827226
-536.5369417691057,217.91233499717032,815.5618891262562
-371.11041997012234,177.9455777457134,818.1744020639057
-349.73614842989195,239.11937307847228,755.4944858845785
-470.2604865066052,417.42185149872796,686.3689435230176
-552.0743577062503,516.3628762115504,861.4175075076607
-479.53990404470443,477.00794868788023,850.8634447033392
-402.2158433308011,429.1373710696314,757.9917708901614
-343.07740155914615,329.4896830212152,484.4906262587122
-393.33819398061524,633.1795261378759,1083.1833500736748
-218.06427271290403,388.0132359164445,1078.7883731957397
-150.11548286111977,-43.664860069442675,461.16767703548106
-409.31612732176643,13.136392142066864,527.7367908511062
-435.3188907527036,634.4817037418487,760.7286892057941
-275.0266400860641,777.8497244216935,1355.2640300204455
-274.612635303595,392.63560950987346,1113.244584032264
-437.93956142005686,-151.13825822273662,735.8669882171793
-621.2274324055616,37.07892093630343,854.149990057767
-740.3384438110875,435.8644389266468,780.3765811974528
-607.023805274992,638.2403777028854,1028.9446447053786
-440.9395665186379,440.10034007535705,1083.122167100896
-261.3328710619835,231.65097153462196,862.8084004221625
-520.3876961041742,245.01129335705878,831.4113382245721
-674.708488627615,233.57313659608536,715.3237853905258
-551.2708213304238,219.07481147996515,501.36794929970995
-518.1259655437892,219.41743612752572,568.5815237619371
-596.4585255923278,278.6211397368113,630.0020904182367
-729.1021908602837,197.1284791442542,487.00422672370286
-803.7443979340551,175.16073276807066,560.5278051118374
-886.8675847511639,166.51353928201783,386.6284612992205
-914.4315337041703,211.0476054514029,582.2967068264902
-967.6331876838677,79.35064471557565,519.1497606216191
-918.5858575558424,-250.5575298394457,446.42971860931107
-778.9591756614135,-355.6739559380625,495.9716111006307
-593.5400977907849,-267.1676872326432,604.4153712021945
-603.1855934493432,-59.92474494348223,839.049012659777
-573.6505330566504,71.81402415707709,886.1425665237365
-594.8657288676562,246.25636685310482,904.8584378967334
-643.3807671325071,335.8629093523273,931.3027384478901
-706.0729199063902,363.1127857117365,894.949855455227
-568.6019180861967,184.95204784508473,564.0172739926479
-390.4768702869992,4.160044459626887,406.3854629256678
-539.8836503800993,258.55720353025754,599.5207333799004
-632.9490702737429,318.0505065440288,680.3424207043181
-612.5180362305172,334.63721046432784,821.8790310656545
-627.1754370758619,274.152743291542,967.0743831991558
-545.1984112821402,332.7170848352904,1097.622531649442
-349.4791799442216,210.2807788592435,991.0734042715914
-392.35008897023965,213.353183808946,864.8325371049237
-531.6994080547385,106.13410287916875,867.0320649763172
-297.1993494210562,75.27575675689457,1082.5817175080176
-248.9545359526444,366.0607852834557,1192.2114075652746
-232.97762232770623,432.73187072037854,1306.0423284200008
-113.20073623510578,367.2334589283803,1441.491232989859
-69.70545497188134,396.08632917459073,1245.8076917193946
-85.28284378457477,392.3021623082297,1241.6676438947043
-231.1451922929849,551.9142622608128,1223.241371926193
-207.9333921369683,539.1759673282926,1117.670152396588
-288.5756094079018,573.6321781648168,1006.4578627767893
-313.90434042206056,492.15685274788035,959.25825842668
-278.42433450770653,541.2969770512866,861.5082622506159
-320.86798244048686,553.1970652567392,856.9073026976594
-293.49879928415925,331.96249483768673,803.1193118954995
-282.8111536559376,362.54990236217265,771.779353805836
-386.06659766586966,475.54567563846985,769.8510704470947
-513.2394854511989,481.38355095776853,877.8155639285588
-477.8665497392077,418.50275068448457,800.0652618376307
-461.1860319273147,224.60983108400933,765.6478002171997
-478.4335119536234,144.16543875839355,840.2288243181923
-483.5749210994581,-70.5253068071156,625.0217964340525
-474.014061886577,-58.53405597222293,676.1452687717009
-537.3149852396078,23.625499023621728,722.015163180087
-552.4231006510888,119.37205875604819,599.8021750546823
-685.4950467284956,144.03695451555834,644.821626141445
-706.8152733094381,129.21945822477605,699.4967700488955
-587.6012705664015,16.240612237614272,717.3621981002688
-737.7147139950953,55.06671493323408,601.1685947800728
-789.6549790193391,-0.07228615276368587,447.5167360923455
-679.7591430304947,6.323372405459561,394.1957753157297
-771.642711833297,53.530614430004135,400.509858106489
-912.8315989660078,136.08010890569156,421.66387094471617
-902.8965039029639,14.867666328460789,288.7846512315623
-887.969897977393,-151.4349956407132,309.1922318018896
-925.6025248173434,-255.18296258151358,356.07368469354986
-814.2158637251254,-243.55513860492627,455.8192654984119
-793.4595402099596,-103.30541010436797,581.244359694697
-822.9599302514112,-82.42845416120694,725.943110032478
-819.9160773556721,8.155374159371448,906.215680176207
-659.9603330393153,-119.14262260812818,657.8658359378586
-562.6855246184988,-263.5374975144418,604.8650660521178
-575.8327257524231,-386.43063635390274,695.3485644945013
-644.9827413030954,-504.56475962739574,835.998021750547
-545.4614980650886,-245.76180448981052,875.8617876644931
-474.6473056548363,-27.674078304008,1095.9705913844177
-329.31837069743494,91.63414621710778,1152.6872071502503
-402.21788276322707,259.3372864331857,1237.3644414759374
-459.08439681236723,270.60719001901776,1150.1379166178053
-306.11880713597407,257.53748731727967,1121.0760045479344
-276.9936726608985,427.7923653847135,1148.4145962178727
-382.84939301392427,641.542218800508,1161.8034700942728
-352.5148751102568,726.1419546940087,1130.569562490759
-300.4104357757236,612.2712649069765,990.4513773816749
-104.9716263963739,494.62354626707395,985.9268965446918
-214.49118710262937,716.1752484283625,1003.1621399764447
-445.18056624841313,733.5379563867376,1011.4218413015658
-438.17919473010664,555.6535616138029,1027.8229568711029
-362.12468070136083,455.3909846889611,1131.3445468126222
-390.7817654346796,461.90493185746413,969.9826138385689
-423.978626748176,299.34891119801364,934.7116497478753
-392.056410700902,144.90881187765447,998.5050960317745
-387.32186832404545,128.65555515899925,916.2139976444556
-292.2690215313079,197.10400595514272,866.3865846135021
-360.17702273457303,166.1127908103175,802.679814207706
-519.243574513213,310.95022255306355,850.828774352098
-551.8959073689794,206.45888249300222,819.2950701819684
-445.8148297328854,76.73140165092056,683.9603738279638
-549.2884930123947,197.39666450826738,674.153763007755
-636.9116874773752,321.9142112750022,676.3461528656576
-721.277908358104,284.0531680033447,694.8325880907345
-871.7655876369606,341.09813238975596,452.98445442633323
-704.1731886016122,157.7878276475657,436.49054468141514
-566.0281543646404,3.9643507211942923,231.07381215807644
-813.8242926993419,90.53601382735185,176.04992530578744
-875.7322837054448,41.74045163231073,289.1007632575854
-858.863118394151,-28.5242157107677,234.6458780521381
-888.4053168003345,-232.64417512606244,313.3842851534418
-735.3377555026436,-187.6369606338556,719.7615903494058
-727.4767632167968,-101.69945904054903,817.7043128897229
-600.7821223353542,-336.50635028271637,632.0129707902292
-189.84872509980474,-517.6854481397828,634.8549198757986
-381.0342981548236,-222.19616280789057,1058.781541097113
-1057.160192318478,-82.26764491442033,969.6858764205923
-1069.7842790351447,-329.60593066949474,989.9537558697416
-587.573738228651,-399.8419439869885,914.997476202373
-697.1799748130096,99.74466306027033,872.4233045943315
-795.569333054611,601.1482004558133,1041.9460264208471
-541.1878674164981,645.5405260715944,1037.754992785508
-447.46880943033557,640.2777706964152,964.6066699637491
-430.67204397016314,514.9322143647423,808.2964111087886
-588.9809466025606,903.2595228747841,828.1625223700245
-1048.971871128265,730.6643960985659,594.227386518332
-1096.980110435266,479.555199787899,594.3548510449543
-756.0971381664484,380.8334140608669,670.4368974114504
-773.4680038545274,598.7212758689258,791.1050154741937
-1021.6842652689758,443.8804280768662,995.9139971345975
-726.1246195183882,38.66468161910541,938.9149199777704
-43.63763364655617,-203.9412031631597,1232.530986626422
-59.87243350175647,-68.86123191915691,1180.8109803041816
-382.8351169869426,-168.58152376193706,995.7763354458456
-229.92663141847626,-454.8648111230645,1132.4662346468979
-46.763777640682605,-171.83747762997558,1357.966277984837
-64.75840373624021,261.16359817062914,1305.2163582874887
-129.83740624984068,593.9010773301791,1248.1734333335035
-403.2783876247241,489.78907170134556,1048.1968868064018
-426.7940632122081,214.67677545339134,982.0509552191626
-257.12654168344955,301.2241693136801,858.7122003946303
-242.86377101252722,582.7351847980708,767.709666399841
-369.37792212427286,792.4224888213612,741.560063834235
-470.2502893444755,850.9531797300813,708.4549769799065
-492.04468396445276,834.0238511622216,527.653174121642
-566.186210377652,722.3628864087126,522.9940907445458
-561.058057542586,677.3057058220699,680.207818164205
-579.8218555775928,491.21361525087576,621.6852849851888
-537.0937068213916,262.1221314108284,568.1532429524864
-664.3675465118058,305.5579632188363,554.3269108207187
-670.1901260879099,167.06214660459995,637.1237884496745
-447.5391698490311,-26.976082556224604,766.7011670652058
-516.4444535085886,-110.29148587947977,907.236416105398
-528.4658879433854,-253.20777227697533,923.2367832032347
-452.71626906232,-145.00466520167438,975.0271499441707
-470.8080741129744,-248.83217000708706,1030.0459382153947
-524.002590079181,-327.4573886087502,845.0622791677076
-665.4382485354326,-183.1797810669291,846.3807722310881
-594.1274543294602,138.30818883104834,948.4054187719559
-604.020741027772,369.5329189886455,837.5877593265794
-596.170965620268,461.1992882380834,711.807803888178
-704.460748573672,490.8363202520739,470.6836687349911
-775.5125348615481,444.60442658808057,430.5292837003463
-673.187072037852,431.78455435852203,385.01017166922446
-829.4545028118674,498.0936405398378,307.877817603361
-840.0534331295602,189.4714301010029,399.02617101660616
-537.4597849418507,-105.84654290710897,522.29354570623
-395.9252140129402,-152.55566375877595,614.8378906150418
-627.3141184808268,-87.0324728628023,815.2304813570385
-604.6356299041978,-240.80190482988587,945.6022189024795
-566.3167340529131,-329.9771073710187,958.2507788082578
-480.80639158122295,-626.8175166851066,1152.8401645821968
-435.30359500950885,-538.5366052627555,1113.978779705608
-587.5380481611968,-285.8448093895469,1114.763961189601
-444.0537798330725,-164.13352164092734,1006.6179582222268
-365.630465041579,-120.91183023764488,1148.9346514864915
-315.3350022688686,224.32940912544043,862.0242386543825
-764.0009585332402,682.0718594015286,602.5839608836861
-747.9047381113837,643.5051725104904,630.4273120790485
-756.2837462334234,561.2997302850617,516.7656641156766
-964.3609183564215,519.4322220126139,411.7501899221447
-860.7791651583365,394.93201042149974,425.4949447568742
-666.6975980584605,464.30840297145306,565.5295131364942
-926.0593576807576,401.35010426598285,652.1238139425799
-678.6986381689976,-262.74721744938387,591.3507670815213
-246.8059938918999,-378.87148006709737,963.2015010222656
-229.14246965069623,-130.26772649171738,1088.2105510036558
-264.43892664671426,-186.0900511387681,1303.727572616541
-311.7792518342146,-181.15054580310303,1381.4911310182379
-372.6236788301816,-348.5257452850872,1216.317498840073
-398.82732635507546,-302.77719710604543,1117.6497580723285
-552.8870715279938,-135.506008677785,1083.3872933162702
-484.31829421871896,2.7879143234437858,1032.9215379359925
-463.9188713780955,93.61616862027299,824.9177853803287
-474.4627370202873,154.75417191395636,730.3635798157374
-433.37225250212873,498.80744188892237,733.7429193455463
-478.69150015550673,746.5576929940398,708.6803342629746
-460.1979269169391,836.0347315342142,779.2987411603352
-524.4787975506417,817.5391188632204,817.6441496331572
-557.5227014321915,760.2891915180006,876.2115503255445
-516.5607011568682,718.1198472465114,955.4598155333371
-495.4546149806509,566.8214935783373,928.814630888224
-411.8827530298318,400.7994575109747,1040.518423722678
-114.20107784003714,239.41611049644885,994.4986310309843
-164.0753978167876,116.2772200496602,1025.5693840404217
-314.0297655162569,-9.922318018895343,1059.0670616367465
-438.1486032437174,-110.57904585153953,943.7320593678779
-463.9137727970306,-118.78776136601184,868.8053514706859
-467.83152248729186,-83.02009350797674,970.6668434174771
-521.8713831940572,-127.10048793420792,754.1515196320864
-695.4892853318922,12.21762783417375,605.870506238114
-795.5356824195827,66.09759703874413,486.4515405362688
-870.6520575323889,42.01852824358981,324.4981721586883
-1099.9474846150317,193.90209704639202,234.20943951298355
-1271.2802027195833,103.94783131854406,-23.154186189983328
-1248.6221084672136,18.691500155506724,-18.60258090173505
-1153.4214028235942,-183.15734731024358,-8.6464286988931
-1070.9161640315501,-229.72880647315856,47.69120953638603
-1136.0760300408397,-217.5482963091372,54.52341013495944
-1151.7082795857914,-340.06923873086123,184.2147930231017
-1140.7055416477597,-393.3677657507916,290.52428709090265
-1161.242626177135,-561.4679834602031,510.562730392132
-1116.9257595611143,-764.1223047625847,386.3225464353271
-1110.603519040651,-884.2499732324496,371.12367628089106
-1118.8122345551235,-1059.097653123136,281.3244074174157
-1160.9367113132416,-957.3004032977623,378.4656330143321
-1076.5449975271883,-799.7134597441533,336.02708366261675
-809.0387645118365,-545.4778135244962,445.14079731610695
-692.7890767999266,-144.5702660949458,382.7362045142837
-790.5319349625,223.69820478960708,376.10498998128827
-909.2116064099363,591.8198365394911,765.5478680283278
-864.2441608500354,712.8550524389063,926.7221732191931
-626.3637429703314,487.6333916271102,613.1512799987764
-327.1616709069866,277.4229731865622,732.1562409181525
-410.3113703456329,360.58185007112525,871.9165056364815
-570.3568496887317,346.8350558039698,924.5093890370312
-454.8352393528882,392.2644328083495,914.3132466234648
-269.9117435617668,434.4266390663479,1462.4667954908152
-122.90129656916481,624.6679549081491,1664.176859579979
145.70419052377727,324.05969418710777,2030.2855715254448
392.2175258625525,248.7526321424748,2045.9993983674344
118.33602708366263,506.6755721882601,2092.0497825455177
107.40874814539116,744.4927676627595,2283.3893327486962
307.462793104679,962.8680538206219,1787.2260150000259
482.63780189973136,1020.7767178394255,1495.3016575487043
261.51947912895844,1310.743220161829,1279.0810317488645
-85.23338754824533,1548.0209857596633,1116.109986590732
-260.7363370773914,1405.9439258054485,1082.561323183758
-37.749078431472526,1195.5458795817126,1114.0807513269058
28.757730723539645,1323.724207553038,1228.46231893664
-175.44829274013046,1214.186291954949,915.7255535784392
-351.7511076667364,1004.2675123513127,650.8430503790796
-279.42671554506387,625.0115992719227,704.2262138446871
-271.79923827198894,497.4889488255419,728.3180290925036
-356.5009457867876,341.6936466581351,539.1933025039132
-473.83663126551886,109.44104255785616,424.40486812520084
-763.0261098336334,-36.120795582589366,334.2232056818588
-521.4961276276813,-433.2162359215431,272.4620538104246
-560.1199186266463,-458.97834632621743,385.78413627487475
-860.5742021995279,-253.81654285612316,565.0482070839686
-809.6291801991507,-616.1359893541628,331.5566477849215
-1018.1499288747943,-695.7380960878588,332.62633009233537
-1331.310896177594,132.98425048309056,572.3911835336227
-1199.910264973258,-314.16640748879587,10.722315979462916
-1063.676178919407,-565.0155761651533,-229.7175895948158
-978.7440155404753,-229.52384351434998,151.1117456011992
-820.2943920706869,8.809542504321048,117.35913895162977
-957.2932652842716,151.33506345184136,358.15288605181183
-1139.1453758419034,111.06239133649107,453.6799008835842
-1177.64986004395,-19.93718548128056,481.01747283730947
-1048.788322209929,-210.72129626324994,460.04394976877944
-934.8401339907105,-486.2251635369877,470.52969158683146
-783.5672732278608,-811.5380889498454,568.0839022500039
-660.0837187010856,-756.3867375709341,785.6016070727517
-637.4908862863466,-690.049099335655,868.1333584863333
-258.7846002457516,-831.7264305343823,933.152503658232
-161.70863648646585,-367.73617902137835,1415.7739900985557
-96.37735618177462,-116.26600317131744,1470.8488627614936
-125.32822115605228,246.58879433853562,1783.1573473102437
68.04974175686908,307.94104000856566,1460.1010538767064
95.63408503413501,729.829248520137,1502.2663192833436
-264.6724416594862,1070.967149842199,1260.2366761330325
-244.1771654948428,917.5182146808545,994.1886373022389
-333.7327221834164,768.2287019522469,663.6833169328977
-348.01996604345015,748.3248611911306,588.9687100080048
-393.7022326686484,969.9469237711146,669.953551926499
-429.5789081898508,799.9908225540833,669.9892419939532
-317.2449307357763,778.0954760290213,915.0729352021334
-470.20848097974346,655.999755268109,972.0628349130437
-285.5062636068382,229.69617555434323,1054.7638592179799
-285.49606644470845,262.58610228773335,1270.5052183977202
-290.00117267364493,131.1477415835173,1278.724131074322
-14.82840725426114,-181.51356477492317,1170.0937629057835
148.98971616199213,-256.641156766072,1133.5471338326545
225.64790218882086,-122.17321919309857,1095.0018609820888
-317.7241973558759,302.0888886622853,1332.6773159029844
-722.9196514609985,287.6262536136194,1091.1881223455514
-602.0720633447712,175.930618508869,822.5714183742666
-694.4420367811639,476.03208027206034,985.0091519530115
-746.5576929940398,634.2502281615027,893.4284388654638
-637.0513885985531,514.9750424456874,632.5218091805051
-548.4513060015398,472.67517449893705,308.247974588672
-485.6663590522758,336.31872249952846,258.62858366516605
-453.83693718038273,195.31032513651454,94.74682995722291
-488.5898854348835,101.87852120754795,0.3506059663595622
-593.1301718731678,-0.7177425522477096,116.86967516940035
-700.0433379390516,-130.94277862470878,170.65154767428226
-611.8327869353959,-430.9677616719268,443.7845747528463
-572.7593010865078,-503.50935334696356,585.9003839231543
-173.14271438258734,-630.4721795924196,584.4656432114944
-334.1395889523946,-283.3067357354449,757.4910902295892
-266.9678228548995,-336.5899670121805,483.9532358144729
-618.6404123732366,-304.1120056288335,776.8473433843362
-2342.696027695493,181.19439360026107,1608.877649350186
-1696.981130151479,-779.4822900786712,322.74018140751434
-1547.5927049502125,-316.31902841439233,759.0481968868065
-1041.120056288335,-209.79335450944006,570.0448165275604
272.0225561226311,-332.2826857285618,142.72152060081683
-573.4323137870731,599.080215975894,1006.0295819673387
-1105.5967124349295,669.7373720893476,1084.1622776381334
-784.0220666588489,283.3832144514182,996.0914277556557
-1028.2104490320344,296.4875875043976,949.2181325936994
-1024.304935936329,-75.39220834841664,471.72785813708055
-892.1466555857506,-352.3058332865964,341.2041828759057
-941.0267522548476,-172.9703823425941,449.75705261225806
-649.9191874901215,101.6361346637231,1124.2983077809447
-124.50021159111421,-199.56254174463248,787.8205095521918
-155.43432262801264,-196.36267226830773,1117.0175340202823
-275.906655177864,-314.4172576771885,1221.5690373369093
-282.332906752051,-229.0741486644267,1240.8110822758028
-250.51368204228768,-192.3133791865724,1484.4926656911384
-238.77470899848575,-25.299975016952786,1566.5186378630829
-346.24667954908153,23.851672079660233,1344.9648962693684
-347.0899848572143,304.5627201949698,1151.6980824236616
-294.0912544038994,492.1446161533246,975.2535269434517
-395.0645735291869,511.03485899874073,836.315153492783
-618.0918050506546,477.1262357685857,742.8224725059017
-522.8737642314145,472.23975567599547,712.8683087496751
-495.04774821167274,548.4869960689941,610.9884619110502
-611.1720108293863,707.5871984826623,561.6168620272979
-681.2418104041645,607.5357028139069,560.9040803944263
-701.9583649870242,388.1886271050767,675.1479863154085
-532.3775193363688,332.8200761728012,689.6483508639546
-516.9176018314104,345.29426460616014,799.727735771135
-568.3735016544896,325.15792854848496,1097.296222461289
-623.9633310049815,175.54516578036336,1191.1610998659075
-794.0030489514769,29.979452718308497,1204.8049027955522
-540.1773286494368,156.3286137467943,1278.8159055334902
-1.8315428816160464,350.8272447777784,1435.3627385498617
-71.34984933692954,496.2071655458287,1622.2155374159374
-258.9701885965136,417.73796352475114,1337.0926871051788
-298.96753733435986,358.744321455339,1195.4133164740256
181.26577373516952,1.2351414601316455,1011.502398882391
440.4837533714368,526.7129957732764,1158.8258987523773
-145.75109746957423,892.1344189911948,838.764511836356
-389.71106341105275,835.6574365354123,368.2705103169788
-778.9061504183387,491.96514609984047,100.65068091550123
-1172.8979824914727,580.7243044260783,161.16818689358752
-1286.9940295615731,389.77122666761846,-91.07248652699955
-1374.975144417309,560.5420811388192,-108.66503851977996
-1314.4549871770687,296.1765740594393,-197.1325580091061
-1131.6606588386453,-14.749685162619244,-193.34533199410606
-1049.8182355850367,-207.2420245445693,-14.862465775774602
-881.7302544701811,-418.3344975093432,321.9600985045862
-658.4419755981911,-606.3569108717045,690.9291144274549
-483.28124283012045,-693.2142984607385,650.6747972039382
-259.1455797851458,-1069.3865897120832,749.4924362549904
-308.31119699387665,-1169.1760183141034,796.1872810796756
-538.002273967155,-1061.738718114749,925.8217638031336
-544.4927676627595,-902.0430014327013,1038.999046565341
-24.090795531603558,-932.923067510312,1502.154150499916
477.9103975363657,-476.08816466377414,1111.7456011991865
-502.21737290512056,534.2303436953497,740.4414351485983
-615.9544798682527,483.5167972753183,1025.4062294463452
-776.9686896136806,668.3536171883366,786.8935875145947
-1243.8396394283473,819.4276332896557,398.70190126087914
-1220.1108431523508,630.0449184991818,11.159060433481363
-983.236885174856,453.0303416559172,325.34963519652484
-883.0854573172287,684.0847792059471,722.4567003003065
-742.6807319522978,792.5642293749651,861.5551691964126
-543.7861043271658,591.8188168232781,1084.9882477706456
-395.9292928777922,270.5072578301459,1194.2508399912306
-319.6361652552095,-59.54051587443215,1129.7945781688957
-324.13923205172006,-287.5263214247475,1157.9693371334758
-295.4352403726043,-473.66837809037753,1135.4743974751827
-264.7937878888306,-674.7717110328197,1171.9394492512736
-182.60058225795763,-546.639270291078,1294.3971692677928
-126.68240428688696,-447.1486185394606,1220.335180719206
-296.143943140624,-362.7232541183789,1425.512279932495
-359.5672324392122,-174.45406943247696,1223.7716243569416
-378.52987513574976,17.86981283108911,1081.55180413291
-472.7006674042614,275.9117537589289,867.3430784212754
-604.8344745657284,576.8758954382996,660.2682873356346
-653.5605940866657,727.2238735959784,556.990409569017
-748.6093620145515,827.7036500741846,461.0371533602199
-789.0808787914325,842.9626834851863,401.51019971142034
-658.6132879219714,692.1956019639736,529.5610631561237
-573.9972365690629,494.54400840246166,566.8163949972723
-449.9089903279917,249.48988696445784,530.2554898971616
-353.4621914721133,148.36463012343665,555.5893194923854
-325.0294443056498,38.51967797361995,842.8831456205739
-210.77636093875074,-84.29993932688534,1053.0099473316577
-17.93670621466046,-102.0664549055998,1397.4089011028234
-32.46164592393937,30.57680247587097,1506.630704674889
-87.38172566574723,-55.208659430080615,1384.427913711614
-6.211132241897081,-175.49010110486256,1417.4463246878395
-183.83851774051283,-44.9018778074062,1155.3282721418632
-324.09334482213603,145.01894122865608,1070.1615740339464
-353.6345235121066,322.23032330102535,959.2358246699945
-422.643818225388,373.05909765312316,958.0305201062546
-474.8747023703304,404.8018436469131,1000.3120331611715
-629.7012741354082,714.7721189193048,914.5304461768291
-774.0115125960447,864.0595922154865,609.6689491314568
-731.5484900552177,726.591649543932,418.46298175217845
-822.8752938057339,575.9856831843698,370.5077676882524
-915.5736158627054,468.5116732013481,385.18046427679184
-943.5250569766434,252.208450388257,401.18898910433234
-827.9708157219846,-26.75317259206763,458.8060142862242
-689.2792135948566,-123.38362233790338,590.7216021781139
-644.4086410751888,-177.1552976806555,673.9926478461045
-626.52077926713,-321.5369162762004,553.0838767570986
-673.694890711915,-467.16972666506916,666.6833220314787
-589.6172495194588,-477.59224607791657,872.0582461900855
-532.3459081337664,-276.3563500277873,927.1820652312462
-614.3341508058309,-194.89835978647145,878.5834102369311
-666.1744836412028,-171.77833408962286,822.7835193465659
-628.7876084085799,-83.53994483335288,772.0261251293766
-542.5706026012962,140.15693432517733,768.638627869864
-530.7327170848354,309.06476727526734,630.8841449424626
-573.4476095302678,320.89551477823727,618.4303508333631
-630.4772781734845,289.64427199910267,535.2643359353093
-638.8399708361163,332.02061866182646,507.5239760774577
-678.2275292786019,333.1004981313701,593.2719124267717
-668.3933861206427,325.85031585709703,656.2383688619458
-641.0915042343717,294.82952894209546,672.4498172158688
-531.0478093946455,237.60203535356115,858.7489101782975
-541.8160126036925,176.09989140022333,894.116747309224
-468.6238419847757,17.190477890003216,927.145355447579
-242.61903912141256,-164.42006189677414,1150.9230981017984
-180.26849127887712,95.02205136310566,1229.4718379874882
-350.65797188642404,202.3851162221554,1403.1702977061486
-284.4916459749252,43.70666843417477,1455.7162741609013
-276.72344786445933,123.76601591777009,1329.975067938593
-371.45406433389593,314.1460131645363,1335.7568588661777
-291.17078716993063,365.4346795286872,1085.610274660562
-399.3963280019171,416.3898986911943,1064.1962341880255
-560.8428974216476,423.470808074113,849.8263933147406
-648.1560981578828,450.5228594882045,769.9346871765589
-561.6454140812613,490.79043302248994,590.5615067326763
-519.9675730244273,544.3520468253686,559.6090408039444
-551.3687140868697,559.8935416273652,539.4625075841394
-601.3990506442058,466.6150010452091,448.7618095883916
-731.2058654076571,343.3527249366502,396.212773985
-791.7402986748789,212.80559620257685,454.6160003670979
-758.1732803760714,34.610799814411656,459.6442210132921
-676.6928563780701,-68.15263112275854,720.2367781046536
-546.416972156649,-207.3827453819602,840.3960577771207
-396.2474443362413,-277.08952598491845,964.5444672747575
-464.5286616734563,-232.80529028771298,1096.8067586790598
-449.87737912538944,-283.32101176242656,1085.426725742226
-483.348544100177,-349.39862236339627,1022.3572779695412
-535.0277617738984,-225.82839195851798,950.5182707652463
-488.9274115013792,-13.81572708315276,903.3982042797492
-505.32546792227726,117.36117838405572,847.7655468483122
-421.08671156817064,131.023336205534,719.4689317962811
-437.4847679890687,262.1996298430147,663.8362743648444
-607.6121815298803,356.0502312206513,625.6499416212469
-665.18739834704,363.2810388868778,518.7979585281417
-713.473000463971,324.5063298883921,467.1850224082639
-656.2618223348443,368.3857382490453,664.1258737693302
-524.6154395231808,282.5694809134618,701.7085345148446
-444.9786624382434,85.66156638607477,817.380043133996
-382.7596579871822,132.66609902464145,935.8914614062908
-373.3170858550066,211.27602188310993,1080.9807630536422
-432.37089118098436,72.38017059852244,1072.7108645663914
-481.0817149587271,-91.07870679589871,923.3999377973112
-534.4036954515559,-98.22854899481474,942.2483722779951
-557.2259640142149,2.4342257549723914,929.7925387364697
-525.3812463991272,24.626248515038267,843.8539154553289
-500.6704634100331,-7.044862414789964,785.4608862353608
-504.16910973676033,-14.649956916990002,797.2080170088666
-571.0522961459826,125.53624326349978,838.9042129575339
-576.0519647382134,136.8642706734716,803.470094272764
-577.4703899904657,186.71309774489762,752.2599460570125
-614.1159315362536,217.38310228263478,688.8142230017387
-662.37604074786,259.71458143198754,621.2294718379876
-724.8489545359528,221.3671335267395,604.7243452147268
-794.9462864484815,156.065526963846,596.0455405260716
-754.3309896855706,155.2936017906217,545.6368892537207
-586.3398816109477,73.48921395175724,630.8464154425824
-527.8836299857751,107.96449348146412,643.3787277000811
-594.0764685188112,185.5363452351211,606.8045662892017
-616.7855485818297,69.96119979809619,642.1754625687671
-676.9120953638603,16.75403935084866,696.3988721938686
-633.7882967170237,5.025763130120888,720.6324279952889
-588.593454441629,113.53622286917552,779.8126781316761
-415.59452004507153,-3.762375530889754,794.5740900307445
-302.3519754452336,-18.70230914736429,953.3051551753148
-353.6029123095043,94.38615633269262,1007.1002839909654
-346.687196953088,117.29999541127705,979.6546221186645
-218.1030219289972,27.84997935074669,1040.752958451663
-233.4742241234265,175.72871469869935,1122.4424242733248
-274.37300199354524,297.1453044617683,1250.9266671085438
-340.8839919850306,362.05533999887837,1096.653801247113
-453.4514844518771,304.78501832939895,1083.3872933162702
-403.40075357028144,233.8759923113398,986.2613634625485
-458.45115304410785,354.7317381572709,1039.9779741297998
-554.0169170919734,401.01563734812606,940.270122824818
-721.1076157505368,475.3213380716148,882.5725400621008
-671.520855745846,396.5727338081812,773.6913217051696
-565.6600368117554,371.0614735918994,610.5285698989971
-618.6363335083847,419.0605354529835,739.0862323015506
-462.07318503260547,511.1643629577889,792.1400274303662
-568.7620135316342,542.1994258997722,708.020577873178
-513.3373782076449,345.19637184971424,791.9320053229188
-435.58605640050376,325.4628236961654,816.7111092982824
-486.7900863189775,412.5261939602209,988.3334268073196
-522.3975567599538,377.80485690832245,968.2949835060904
-378.03327334002955,121.26975062840012,963.4727455349177
-319.8870154436021,214.59111929150123,1066.072512019905
-387.9846838624811,117.90060826072106,1010.4306771425513
-363.69198452070793,129.6018518046428,1042.1499696634428
-320.8241346433288,281.0052362427537,1136.4737193639012
-159.13487276490955,309.6154140302754,1017.1363309590943
-216.03911631392987,437.72949988018337,1015.8525082469549
-244.00483345484952,400.9391586321527,772.2310880881852
-325.19055946730026,338.7109767351746,665.2597981981615
-412.7607286892058,509.5848225438861,659.4474157841873
-615.5465933830616,807.8956626370882,525.8911045056162
-792.0003263091883,549.7218724029103,488.796887826118
-825.2695874738062,312.775514574294,355.66069962729375
-852.260455915119,227.02145992770213,261.35530481866897
-884.6690765959834,157.34832995977223,229.70739243268602
-921.1728775881675,-43.65986345999909,218.065292429117
-880.4229782851434,-367.801440859009,349.28135499890385
-817.6125384305548,-308.0664651027619,593.347371426532
-735.3550906782643,-119.9961250783907,927.5379461895756
-818.6138997516993,-33.002707346545456,1063.3600668933839
-883.9185654632316,-299.91281426379044,1012.2610677448467
-894.0484263229545,-509.0035843024887,985.3425991546554
-949.9411113887006,-488.76935548836764,1035.4606313063077
-697.1432650293424,-359.8129840465399,968.1654795470422
-509.6939321786747,-14.043123798646839,859.9175049583702
-331.8962132838431,274.36586398005437,818.4364691306411
-298.1640009585333,538.462165979208,959.3377962912923
-436.7271188428261,659.2934386360276,937.2313685101437
-516.6422784539063,745.1321297282967,947.5182656666651
-485.2707091616404,783.649870241112,955.7076065730907
-535.1266742465572,573.5607980299084,782.9860349864633
-590.4717717059343,363.0913716712639,563.088312522625
-614.7073669397807,223.96231128876838,559.2704950212357
-395.2848322311901,99.62535626335193,692.4892802333112
-231.9120188851443,83.31112051516064,742.0862374001316
-263.24585867753007,42.9339274879801,957.6073378778686
-170.36092855358356,-30.059092554542076,1096.6028154364642
-250.81857718996807,-98.8318131064125,1123.1052398117604
-401.41842525225235,-264.80908363202525,1035.073139145376
-385.90140363936723,-379.7627120372401,1173.0509399234195
-256.75230583328664,-98.32766541071621,1174.0400646500082
-274.5290185741309,307.695288401238,1133.149444509593
-305.75578816415396,379.33952980885425,1328.680028348111
-317.2153589655999,226.84810817149588,1140.634161512851
-487.0990603315098,471.37299689496416,1078.4008810348082
-499.2897676576609,594.8861231919158,1034.6244640116656
-540.3139706219761,499.88018334497514,759.6090408039444
-617.4310289446447,545.810241009927,636.6363640998711
-629.7859105810854,723.3469125542363,576.9829656406623
-702.7568027817858,778.0404113535204,571.7803735220489
-661.0922180357207,533.2361203876961,490.81388649538843
-676.3553303115744,258.2013225719283,440.49293081735357
-711.5518551187206,107.7248601714143,456.17208730810216
-573.2691591929967,10.991826974552984,576.307913507671
-507.14872051108176,-64.60575221915741,832.6533525719793
-403.1672385575095,-126.21843340998203,956.0828621394668
-333.2208246445015,-243.46132471333232,886.8828804943586
-327.2085778527836,-459.21594020384134,993.6655228849811
-377.76406825980337,-601.8354891833603,1009.0877108900595
-488.570510826837,-595.0044102726212,811.1740502618122
-634.0422060540552,-463.3243768259294,698.6606027542535
-677.9797382388482,-206.50782887122517,822.7243758062133
-603.2559538680385,-172.93367255892687,749.1630679181984
-659.1965655957947,-126.67424655718315,681.449832511612
-733.753116507676,109.13104882911088,593.1964534270113
-859.8043164587298,326.6589508139885,578.800099932189
-879.9426919488307,280.24554766408517,562.9567691311508
-894.8019966043452,237.02691540944159,476.53785951369736
-788.2773424156059,221.39772501312888,552.7545084203067
-707.2802639025559,217.926611024152,667.7937929874117
-687.275471236355,148.44824685290087,703.6490544681416
-586.2746197733171,94.807808986759,850.5534509745938
-398.36947377544834,-120.28062590181155,759.902719073282
-295.1772521707209,-274.7768096138845,879.7091769360588
-236.3192323576349,-312.58074877761527,1029.8521921349288
-228.69175508456001,-401.4847068060959,1045.9637082999802
-252.809063237701,-511.55797341599845,1261.8274334252778
-314.6660684331551,-378.8317111347912,1338.9485706127984
-430.92697302340764,-277.69421769921433,1297.6194725008033
-362.13793701212956,-224.3069753687549,1270.9946821799495
-466.3050073164639,-59.46566870439957,1009.8565769146447
-508.9148689919596,160.93467188081559,957.454380445922
-322.32311747640637,146.3353948596106,787.6155465933831
-422.2971147129755,235.9868048722041,774.041084366221
-527.1973609744409,372.7389067622481,830.8780266451847
-553.1022316489322,518.9713102843479,720.1072741456054
-586.3368224623088,473.2584521727603,770.7841107819695
-601.8120357104619,393.25865611600295,896.4100890722112
-540.636200945277,260.3610815110155,799.6594147848655
-503.62662071145604,159.2715147374486,777.0064191135608
-379.00302345857153,-42.170160044459635,858.0453059913427
-296.64156465255724,-122.53725788113171,1028.3124206533323
-305.03076993672664,-122.64942666455926,1008.5605176079497
-333.613415386498,-118.98252716269063,961.0244069075577
-363.0485435903189,-249.69994850433125,1027.7413795740647
-409.26106264626566,-303.40228314460086,1039.0092437274707
-430.08672686391384,-98.96356044112925,951.6623923562074
-415.69343251773034,13.653286290425378,1010.3674547373467
-362.82318630725075,-184.98773791253896,909.7897855026946
-459.59833378370803,-53.04879851937206,868.6483151738872
-484.6955892175208,175.48296309137172,875.3509098417912
-470.0973319125288,59.301800308974016,875.9617198533648
-436.5333727623603,16.272835269944377,853.0619528585195
-436.15403833113254,128.3628966058746,840.9150933295266
-542.0801191028538,190.48502801670298,772.4003609795394
-586.8670748930574,140.0060163256566,713.0304436275386
-657.9565906808136,152.69026629888904,770.7922685116732
-626.9001136983578,43.37984938791535,689.2088531761611
-649.8009004094162,-22.03892256784937,708.7099060331511
-598.9140022331785,-84.01747793589045,745.0026257692485
-575.1841862409692,-139.10662662581007,663.1275715968246
-577.6396628818201,-43.17478445748549,572.5002931684113
-567.5118414545233,-157.48803108095018,777.1185878969884
-498.82681649696895,-370.5975027149945,802.4136682761189
-602.545211667593,-284.7506538930216,792.7212656717636
-533.4839114274498,-231.29509057629264,773.9523690556919
-562.9108819015669,-308.940361897284,718.8285500145311
-501.6096220421857,-340.40064650007906,715.9284771048218
-485.4318243232909,-328.74223103710244,735.7548194337517
-553.295977729398,-269.90256611585,765.9363799054723
-651.9871719700409,-210.82428760076075,795.6560089327141
-675.4437040171722,-174.97616413352165,889.3740472026636
-664.3848816874265,-104.68100727567519,971.7202102654833
-653.1996145472716,9.996532964875875,826.2893036867841
-629.1261541912886,67.98570357869406,842.1530288120816
-609.6679294152437,94.9179383377606,842.3539129060383
-551.7031810047264,117.68442842356974,843.1452126873093
-544.4040523522305,59.593541117507,843.4501078349897
-510.4587193384082,32.10790636965733,828.3532093018514
-423.00173861614314,38.85312517526373,794.3191609775
-428.9191518000541,125.32006342634845,939.1494547067553
-341.22661663259123,210.35827729142983,1006.8953210321567
-338.6793655325723,43.93946964559763,1003.5700264616357
-357.01794190676736,-17.46926830263138,1042.7516022290997
-192.39801563224955,-197.6638301560676,939.857137758562
-255.25230328399607,-232.2454660867881,911.5600128484243
-339.7653632993938,-149.42819413357265,1012.0550850698252
-232.9847603411971,-250.95114029765517,1002.2229813442921
-272.7129039988171,-40.41716590272927,1146.130431900802
-253.9409482341065,140.81974986361297,1094.7775234152336
-345.3054814845029,145.67563846981386,1124.7877715631741
-290.06541479506257,71.21076004547936,1067.0004537737148
-372.05467718333995,191.2875446763166,1010.4225194128476
-461.62145075025626,297.00458362437735,1071.517796597207
-425.5031024865781,179.24673563347324,915.4716442414077
-545.9183309285027,353.7150810929319,850.2852656105807
-561.3884455955908,423.334166101574,834.1197044862415
-558.2150887408035,326.5865509628671,834.4939403364045
-528.6667720373421,241.0649916128342,815.6016580585624
-565.3928711639551,221.51091351276943,760.1729438697212
-568.999607409258,159.8119643303269,779.9503398204281
-541.2765827270272,-30.43852895739116,729.9873045331485
-580.5723667103446,-138.46522512784694,729.7629669662933
-463.11227585362997,-223.85422137019273,802.4534372084249
-514.2530833668991,-172.52884522237463,872.1581783789571
-546.6515068856338,-209.31102874070146,1056.2526448889275
-389.32765011497304,-485.889676902918,984.9755013179832
-443.98851799544195,-315.7275930108651,928.6382199833788
-548.4258130962154,-132.51722045754667,989.2491319665737
-570.8830232546283,-140.89316943094738,898.6748787812352
-504.38325014148575,-200.0754589997604,829.2271060963735
-509.8754416645848,-65.2898798264443,754.122967578123
-571.9985927916262,139.75006755619913,697.5562500955986
-573.6994794348734,194.38646224755652,748.3656498396497
-653.2495806417074,171.18791840230864,680.5341273523579
-720.259211861339,229.24546098820701,624.3895723820061
-833.0459433139758,218.2631173744347,595.2654576231436
-859.3525821763805,-2.4863332534555638,548.5206467040224
-819.1625070742813,-147.25211973507774,404.40007545899977
-845.4813825312416,-170.05093482483827,427.63023050685
-699.792487750659,-251.47119556627393,536.0515568517283
-571.6987962250106,-371.9394492512734,589.3969908174555
-529.5631025885497,-460.15713826841994,711.9893133740882
-474.50556510123243,-393.6461482769346,842.1020430014329
-373.4241560573693,-416.3715437993607,984.9795801828352
-342.46761126378533,-431.02894464470546,1103.2309708208209
-387.2912768376561,-422.59181269852604,1141.7762436713863
-289.0212253929732,-322.4414045571118,1178.2310982853473
-397.15907063064355,-148.87958681099053,1022.969107697328
-558.2895280243508,6.0293270382852455,898.3679442011289
-517.6497580723285,124.98253735985277,824.0071788021395
-537.681063360067,171.28275201011562,792.1543034573479
-573.1111031799851,380.9017350471364,838.0119612711784
-575.5686192532619,496.1419037081981,743.3955530175953
-725.1365145080125,554.4146064150348,638.9184889845156
-791.7963830665926,416.5999602310677,744.3500073929426
-769.327956029837,304.2619039121413,748.9897161619922
-705.4539521651126,226.10881391708688,718.8132542713364
-667.7632015010223,183.11757837793746,703.8244456567738
-560.6002049629589,58.51988191686254,709.7744897595
-442.9769595121678,-22.9661505203102,786.3786308270409
-391.1162323525363,-114.59876716309853,967.9972263719009
-427.4854308046071,-238.3362310269052,944.3224750551923
-444.2403879000475,-384.30962663090867,1046.6061295141562
-350.52846792737586,-461.9528585194741,1099.294866238726
-365.45303442052085,-392.197131538293,1098.8359939428858
-491.2574630480338,-236.3977505060342,1104.2710813580582
-382.54347815003086,-159.7885108574284,1113.4893159233789
-430.4517852681599,-28.544304120163364,1037.7651899476377
-507.877817603361,76.23276042277435,1004.8507900251361
-429.4820351496179,58.52987513574973,825.552048864801
-559.8751867355315,187.14137855434834,815.3161375189286
-648.0429096582421,292.2129371395941,805.7919880897148
-562.0227090800631,262.84409048961675,626.6472240775394
-554.7093044005854,425.8824369178058,692.9246990562527
-440.45826046611234,399.6094486904295,883.1068713577013
-454.68840021821933,271.58611758347655,832.3056293433538
-584.0587764425161,171.60498233341664,787.5339692963449
-568.8803006123396,73.8833342680732,689.9756797683206
-565.5152371095126,-73.02116421000036,706.219759041059
-434.36749552599514,-146.3802623729816,837.9446600011219
-372.65834918142286,-119.80951701141574,834.8549198757986
-306.721459417844,-111.48761299730288,957.4768142026076
-310.1650410690705,-149.97374230751583,977.1787511535541
-378.7909224862721,-180.14918448195868,1003.7250233260086
-393.84805208710424,-264.9018778074062,1031.2594005088386
-420.08535024702627,-314.71399509516505,1062.4321251395738
-418.6964967649504,-194.6464898818659,1077.7482626585024
-367.614832792034,-60.61560267777478,968.167518979468
-328.41694156516246,-50.157597140715744,874.527998857918
-346.7065715611346,147.19297619472502,861.8151968307221
-326.7884547730367,317.1317422361357,845.8413423544229
-379.5852814161819,397.94119296599763,750.5865917515156
-392.0186812010218,428.70603111154173,718.8999301494395
-396.908220442251,416.89057935176646,691.3941050205729
-444.43107483187435,389.8925728969628,659.3770553654919
-496.6334069228534,367.57608357594086,713.6147410175749
-369.0210214497306,172.6145013842648,657.3141694666375
-274.0976786160412,-29.30256509613375,659.417844014011
-195.49999235212843,-102.89038560568595,719.712643971183
-448.2030051036797,20.196601285862144,848.9494373715796
-808.8164663774072,-0.6460768967996207,1228.2277842076553
-789.6886296543673,-381.28922720806804,1080.6646510276191
-965.1838293402948,-470.2941371416335,925.2772353454035
-464.29922552553626,-495.48112760218834,713.0855083030393
-201.27464526622242,-325.34045775060804,932.3061392014603
