acc_x[mg],acc_y[mg],acc_z[mg]
-935.5294621506836,261.8151968307221,185.42315673548055
-935.4478848536453,254.11124084167378,189.37455706077
-935.3112428811062,273.4552574018651,189.3113346555654
-928.3139502276517,269.35599822569384,169.80722264993653
-928.0406662825737,269.42431921196334,177.66005720607959
-931.4577353122627,273.42568563168874,189.36945847970512
-935.6661041232227,261.7805264794808,181.49622959930255
-947.663065368908,277.2078130656239,165.56622292016135
-928.2323729306136,280.9624081618086,169.76847343384338
-947.2266268297534,281.1796077151729,177.33272830171364
-944.0002447318911,269.4059643201298,161.72291251344754
-935.6110394477219,269.5181331035573,181.4707366939781
-947.3632688022924,281.14493736393166,173.40682088174862
-947.852732584522,250.12720959756905,165.65493823069042
-939.2738600847387,277.31896213283846,185.3140471006919
-932.4397220253604,269.31724900960063,161.89626426965378
-939.4105020572775,257.97596528886015,185.37726950589655
-939.6837860023556,277.2169905115407,173.53428540837086
-939.7653632993938,265.6105805754259,173.57303462446401
-947.4173137615803,254.09798453090508,177.42144361224274
-935.4754171913958,269.5517837385856,185.3976638301561
-943.3996318824472,257.97086670779527,181.39323826179177
-943.0457903565439,269.64559763017957,189.2083433180546
-935.747681420261,269.48346275231603,177.54482927401307
-927.4951181086305,269.5609611845024,193.3657263183656
-931.6759545818401,261.7846053443327,185.4802608434073
-943.1273676535822,258.03918769406476,189.2460728179348
-950.4519892114026,254.33353897610297,200.92284317274505
-942.7725064114659,269.71391861644906,197.06117787419763
-939.2198151254506,265.74722254796495,189.2787037367501
-950.8343827912694,258.0993509506305,189.1308448858683
-946.8442332498867,277.41277602443245,189.12472658859042
-935.6385717854722,265.64932979151905,181.4839930047468
-939.1372181121994,258.04428627512965,193.23112377825254
-939.2463277469882,261.8784192359267,189.29196004751878
-943.3731192609098,261.8396700198335,181.38100166723603
-940.1467371630476,269.3763925499534,161.78001662137427
-951.1617116956352,269.6027695492345,177.31335369366707
-943.0733226942943,265.7767943181413,189.22057991261036
-943.3996318824472,257.97086670779527,181.39323826179177
-947.7721750036966,261.7325998174708,165.61618901459724
-939.1647504499499,273.4848291720415,189.25321083142563
-947.5264233963688,277.2424834168651,169.49213034012635
-935.2031529625307,288.93047065001815,189.26034884491648
-943.6464032059878,281.0806952425141,169.53801756971038
-943.4271642201977,273.41242932092,177.41634503117785
-942.855103424717,277.41787460549733,193.10977754890817
-935.556994488434,277.25573972763385,181.44524378865364
-947.0084075601761,273.5103220773659,185.21105576318112
-947.662045652695,257.8984668566738,169.555352745331
-939.9285178934703,281.0174728373094,165.6692142576721
-955.2059061963056,261.86108406030604,173.35379563867377
-935.5845268261845,273.3869364155956,181.45850009942237
-931.9482188107052,261.7162843580632,177.62742628726429
-924.1606460921927,273.26355075382526,177.70492471945062
-932.4397220253604,269.31724900960063,161.89626426965378
-928.4230598624405,273.1901311864908,165.86805891920278
-942.9642130595057,261.94266135734426,193.1597436433441
-958.977836468111,254.1877195576471,177.2480918560365
-944.6814151621605,269.2356717125624,142.0892965487705
-943.782025462314,261.7376983985357,169.601239974915
-947.8812846384853,265.5677524944808,161.67702528386351
-951.1617116956352,269.6027695492345,177.31335369366707
-936.5654938230692,269.2784997935075,153.985305889371
-943.4006515986601,277.2802129167453,177.40308872040913
-935.5845268261845,273.3869364155956,181.45850009942237
-940.2283144600858,257.7710023300516,161.81876583746745
-948.1810812051007,261.630628196173,153.83642732227622
-939.0556408151613,269.65069621124445,193.1923745621594
-939.0831731529117,265.7818928992062,193.20563087292808
-931.9767708646685,277.156827254975,173.65053305665037
-954.3880937934973,262.06604701911465,196.91331902331584
-935.4203525158949,257.9800441537121,189.36232046621427
-946.790188290599,265.8410364395589,193.0893832246486
-950.8884277505571,250.36174432655397,189.15633779119273
-943.4822288956984,265.6748226968435,177.4418379365023
-939.6827662861426,257.9076443025906,177.5244349497535
-924.1606460921927,273.26355075382526,177.70492471945062
-935.2837105433559,258.0147145049533,193.2882278861793
-950.943492426058,261.9334839114275,185.19168115513455
-947.1715621542526,269.6068484140864,181.29738493777182
-947.5264233963688,257.9321174917021,173.482279881509
-954.960154588978,277.3699479434874,177.22973696420289
-947.5264233963688,277.2424834168651,169.49213034012635
-952.1436984087329,265.49433292714644,149.84015948361574
-958.9227717926102,242.6149602565606,181.21274849209468
-939.3013924224889,273.4501588208002,185.3273034114606
-942.8275710869666,281.2866779175356,193.09652123813945
-954.960154588978,277.3699479434874,177.22973696420289
-951.543085559289,273.368581523762,165.52033569057733
-934.9574013552028,285.1299883242494,197.12643971182823
-931.7310192573408,273.35736464541924,181.51560420734913
-943.4006515986601,277.2802129167453,177.40308872040913
-939.573656651354,273.38183783453064,177.47344913910462
-943.1824323290829,269.6119469951513,185.2814161818766
-943.2640096261213,277.31488326798654,181.33001585658712
-958.9503041303607,277.36586907863546,173.24570572009813
-938.6742669515074,285.19321072945405,200.9952430238665
-947.4988910586186,261.8009208037404,173.47004328695326
-943.8095578000645,277.1782412954475,165.62332702808808
-927.7408697159581,273.3614435102711,185.50065516766685
-948.0995039080625,273.23601841607484,153.79869782239606
-940.2018018385485,280.9491518510399,157.8153599853161
-942.9091483840048,269.6802679814208,193.1352704542326
-943.2640096261213,258.0055370590365,185.32016539796976
-940.0100951905085,269.4110629011946,165.7069437575523
-935.6385717854722,265.64932979151905,181.4839930047468
-940.037627528259,284.8516057981064,161.73005052693838
-943.5087415172359,261.8060193848052,177.454074531058
-947.5264233963688,257.9321174917021,173.482279881509
-932.1123931209945,277.1231766199467,169.72360592047235
-943.5087415172359,261.8060193848052,177.454074531058
-947.3082041267917,269.5731977790581,177.37045780159383
-950.9975373853458,254.19587728735095,185.217174060459
-946.9258105469249,265.80636608831765,189.16347580468357
-939.6287213268549,265.64525092666713,177.49894204442904
-939.6011889891045,269.51303452249243,177.4867054498733
-939.9835825689712,273.2798662132329,165.69470716299656
-935.556994488434,277.25573972763385,181.44524378865364
-951.1617116956352,269.6027695492345,177.31335369366707
-927.8775116884973,273.32677315902987,181.57372803148886
-939.6011889891045,269.51303452249243,177.4867054498733
-950.4795215491531,269.7740818730148,196.94594994213114
-939.3013924224889,273.4501588208002,185.3273034114606
-939.4645470165653,269.54770487373366,181.41261286983834
-951.3523986274621,261.8315122901297,173.41191946281353
-943.8095578000645,277.1782412954475,165.62332702808808
-943.7004481652758,273.3430886184375,169.56249075882184
-939.1647504499499,273.4848291720415,189.25321083142563
-931.4577353122627,273.42568563168874,189.36945847970512
-924.18715871373,269.394747441787,177.7181810302193
-947.5804683556568,269.5048767927886,169.51762324545084
-951.1892440333856,285.0433124461463,173.33544074684016
-943.4822288956984,265.6748226968435,177.4418379365023
-947.5539557341193,273.37368010482686,169.50538665089508
-954.960154588978,277.3699479434874,177.22973696420289
-940.1742695007981,265.5075892379151,161.793272932143
-935.7487011364739,288.79280896126613,173.5546797326304
-943.5097612334489,281.1153655937553,173.4639249896754
-943.1273676535822,277.3495536192278,185.25694299276515
-946.7086109935606,277.4474463756737,193.0516537247684
-935.0389786522413,273.52357838813464,197.16416921170838
-934.685137126338,285.19830931051894,204.97927426797125
-939.7102986238931,273.3481871995024,173.5475417191396
-931.3761580152245,285.0310758515905,189.33172897982496
-935.6936364609729,277.22106937639256,177.5193363686886
-939.573656651354,273.38183783453064,177.47344913910462
-934.9023366797021,273.5572290231629,201.0910963478864
-939.3829697195271,261.8447686008984,185.3650329113408
-942.6919488306405,281.32032855256386,197.02344837431744
-931.9757511484554,257.84748104602494,177.63966288182002
-928.4495724839777,269.32132787445255,165.88029551375854
-943.3455869231594,265.7084733318718,181.3677453564673
-943.4271642201977,273.41242932092,177.41634503117785
-947.7446426659462,265.6014031295091,165.60395242004154
-943.4822288956984,265.6748226968435,177.4418379365023
-947.2806717890412,273.4420010910964,177.3582212070381
-939.6287213268549,284.9545971356172,173.5098122192594
-939.7653632993938,284.91992678437595,169.5828850830814
-954.9876869267284,273.5011446314491,177.24299327497158
-931.5127999877636,265.68807900761226,189.39495138502957
-935.747681420261,269.48346275231603,177.54482927401307
-946.9808752224257,258.06977918045413,189.18794899379503
-954.9061096296903,265.79820835861386,181.19439360026107
-947.1715621542526,250.29750220513634,185.2875344791545
-947.0073878439631,254.20097586841584,189.20120530456376
-938.974063518123,261.9467402221962,197.14479460366184
-943.8085380838513,257.86889508649745,169.61347656947075
-935.3387752188567,269.5864540898269,189.32357125012112
-947.3357364645422,265.7043944670199,177.38371411236255
-935.556994488434,277.25573972763385,181.44524378865364
-935.1480882870297,258.04836513998157,197.21515502235732
-951.3248662897116,265.70031560216796,173.3986631520448
-939.1922827877004,269.61602586000316,189.26646714219436
-950.7252731564806,273.57456419878355,189.0798590752194
-950.3438992928269,269.80773250804305,200.87185736209616
-931.0223164893212,277.3964605650248,201.13596386125744
-939.573656651354,273.38183783453064,177.47344913910462
-935.0665109899916,269.65477507609637,197.17742552247714
-950.5886311839415,273.6082148338118,193.00678621139738
-935.3928201781445,261.84884746575034,189.34906415544557
-931.348625677474,269.59053295467874,193.30862221043887
-939.0831731529117,265.7818928992062,193.20563087292808
-958.2140690245906,265.96442210132926,196.84295860462035
-939.6827662861426,257.9076443025906,177.5244349497535
-942.8275710869666,261.9773317085855,197.08667077952208
-939.0831731529117,265.7818928992062,193.20563087292808
-947.8812846384853,265.5677524944808,161.67702528386351
-943.0733226942943,265.7767943181413,189.22057991261036
-935.6661041232227,261.7805264794808,181.49622959930255
-943.4822288956984,265.6748226968435,177.4418379365023
-935.6110394477219,269.5181331035573,181.4707366939781
-939.3013924224889,273.4501588208002,185.3273034114606
-943.3180545854091,250.26793043495996,185.34463858708122
-943.2364772883708,261.87434037107477,185.30690908720106
-947.4173137615803,254.09798453090508,177.42144361224274
-935.5845268261845,273.3869364155956,181.45850009942237
-943.1273676535822,258.03918769406476,189.2460728179348
-943.7544931245635,265.606501710574,169.5879836641463
-946.9808752224257,258.06977918045413,189.18794899379503
-931.9757511484554,257.84748104602494,177.63966288182002
-939.6287213268549,265.64525092666713,177.49894204442904
-947.4173137615803,254.09798453090508,177.42144361224274
-928.0957309580745,261.6867125878868,177.685550111404
-936.5379614853188,253.83795689659573,157.96219911998492
-939.8734532179695,250.13536732727283,173.62300071889996
-939.8194082586817,257.87297395134937,173.5975078135755
-936.6470711201075,257.67208985739273,154.0230353892512
-942.9366807217552,265.81146466938253,193.14750704878836
-946.9808752224257,277.3791253894042,185.1988191686254
-947.5529360179063,254.0643338958768,173.49451647606475
-934.7391820856257,277.4607026864424,205.00476717329568
-954.9061096296903,265.79820835861386,181.19439360026107
-947.4988910586186,261.8009208037404,173.47004328695326
-939.4920793543158,265.6789015616954,181.42586918060707
-947.3082041267917,269.5731977790581,177.37045780159383
-954.7154226978633,273.5694656177186,185.0958278311146
-946.7626559528485,269.7098397515972,193.07714663009287
-935.2847302595688,277.32406071390335,189.29909806100963
-935.556994488434,277.25573972763385,181.44524378865364
-943.4271642201977,273.41242932092,177.41634503117785
-946.9258105469249,265.80636608831765,189.16347580468357
-943.1273676535822,258.03918769406476,189.2460728179348
-950.9159600883075,246.49294101451568,189.16857438574849
-943.8636027593523,250.13128846242094,169.63896947479518
-935.8017263795487,261.74585612823955,177.56930246312453
-954.8510449541893,254.22646877374032,185.15905023631925
-939.4105020572775,257.97596528886015,185.37726950589655
-935.1480882870297,258.04836513998157,197.21515502235732
-943.5638061927366,254.06841276072873,177.47956743638247
-938.8374215455839,261.9814105734375,201.07070202362684
-963.2402502383588,254.11429999031273,165.41020633957572
-934.7667144233761,273.59189937440414,205.01802348406443
-946.9533428846754,261.9385824924924,189.17571239923933
-939.3829697195271,261.8447686008984,185.3650329113408
-954.7694676571512,265.83185899364213,185.1213207364391
-943.0998353158317,261.90799100610303,189.23383622337906
-946.6260139803094,250.43414417767536,200.99320359144053
-938.974063518123,261.9467402221962,197.14479460366184
-942.7184614521781,258.14217903157555,201.0258345102558
-943.5903188142742,250.19960944869044,177.4918040309382
-950.3704119143644,265.9389291960048,200.88511367286486
-943.5087415172359,261.8060193848052,177.454074531058
-950.4795215491531,250.46473566406473,200.93507976730078
-955.2048864800927,242.55173785135602,177.3439451800564
-943.2364772883708,261.87434037107477,185.30690908720106
-943.4822288956984,265.6748226968435,177.4418379365023
-939.4105020572775,257.97596528886015,185.37726950589655
-946.2986850759435,258.2400717880214,208.82156495847207
-939.4920793543158,265.6789015616954,181.42586918060707
-947.1715621542526,269.6068484140864,181.29738493777182
-954.6878903601129,258.1289227208068,189.07272106172854
-935.2837105433559,258.0147145049533,193.2882278861793
-927.2768988390532,261.8916755466954,201.2440537798331
-935.0389786522413,273.52357838813464,197.16416921170838
-935.6110394477219,269.5181331035573,181.4707366939781
-924.2962683485187,273.228880402584,173.7790172994856
-947.3622490860795,261.8355911549816,177.39595070691828
-934.8207593826639,285.16363895927765,201.05336684800622
-939.4105020572775,277.2853114978102,181.38813968072688
-939.7102986238931,273.3481871995024,173.5475417191396
-947.0624525194638,265.7727154532894,185.23654866850558
-942.9366807217552,265.81146466938253,193.14750704878836
-962.2042185659732,265.96034323647734,192.8589273605156
-935.6110394477219,269.5181331035573,181.4707366939781
-951.080134398597,281.20917948534924,177.27562419378688
-935.5294621506836,281.12454303967206,181.4330071940979
-943.0457903565439,269.64559763017957,189.2083433180546
-931.0763614486088,269.6588539409483,201.1614567665819
-950.6977408187303,258.13300158565875,193.0567523058333
-932.0583481617068,265.55143703507315,173.68826255653053
-931.2670483804358,261.88759668184343,197.26002253572833
-943.7544931245635,265.606501710574,169.5879836641463
-946.9808752224257,258.06977918045413,189.18794899379503
-946.4353270484825,258.2064211529932,204.89463782229407
-943.0182580187934,254.2050547332678,193.18523654866854
-950.2888346173262,258.23599292316953,204.83651399815435
-936.1290552839146,253.9399285178935,169.74196081230596
-935.5019298129331,265.6829804265473,185.40990042471182
-927.7133373782077,277.23024682230937,185.48739885689815
-924.1320940382293,257.8230078569134,181.68181795006453
-932.2215027557833,242.33861716284358,173.7637215562909
-927.6317600811694,250.2169446243111,193.42894872357024
-955.5057027629211,238.6146135530482,169.50334721846912
-951.9244594229427,238.51570108038933,161.70761677025286
-951.7062401533655,230.84743515879535,169.58594423172033
-962.2857958630115,254.35393330036254,192.89665686039578
-958.5954428882444,250.42088786690667,189.04009014291324
-946.790188290599,265.8410364395589,193.0893832246486
-954.4696710905357,250.45963708299985,196.95104852319602
-943.2364772883708,261.87434037107477,185.30690908720106
-945.9173112122897,254.47425981349394,220.61356324534884
-942.8816160462545,254.23972508450902,197.1121636848465
-950.8333630750564,238.79000474168043,193.11997471103794
-942.1718935620218,238.96947479516453,220.72165316392451
-935.1746009085673,254.1795618279433,197.22739161691302
-946.9533428846754,242.62821656732936,193.16586194062194
-942.8275710869666,261.9773317085855,197.08667077952208
-938.6192022760067,254.31212493563044,208.94902948509434
-935.5294621506836,242.504830905559,189.4122865606502
-942.2820229130234,242.80462747217453,216.7824894331908
-942.9631933432927,242.63331514839425,197.14989318472672
-946.6260139803094,250.43414417767536,200.99320359144053
-939.3829697195271,242.53542239194834,189.35518245272343
-942.9631933432927,242.63331514839425,197.14989318472672
-947.1715621542526,250.29750220513634,185.2875344791545
-938.373450668679,250.5116426098617,216.81512035200606
-934.9288493012394,250.37907950217456,205.0934824838248
-931.1579387456471,258.05346372104646,201.19918626646208
-931.2395160426854,246.44705378493168,201.23691576634226
-946.8442332498867,258.1034298154824,193.11487612997306
-938.7283119107955,258.14625789642747,205.0098657543606
-947.2266268297534,261.87026150622285,181.32287784309628
-939.2198151254506,265.74722254796495,189.2787037367501
-951.0250697230963,250.32707397531271,185.22941065501473
-935.9118557305503,265.58100880524955,173.6301387323908
-943.6729158275253,257.9025457215257,173.54040370564874
-946.9798555062127,238.76043297150406,193.1780985351777
-939.2738600847387,258.0096159238884,189.30419664207454
-935.2837105433559,258.0147145049533,193.2882278861793
-927.1137442449767,265.7951492099749,205.15874432145534
-939.4105020572775,277.2853114978102,181.38813968072688
-935.0665109899916,269.65477507609637,197.17742552247714
-943.6729158275253,277.21189193047576,169.5502541642661
-943.5087415172359,261.8060193848052,177.454074531058
-938.9189988426222,269.6843468462727,197.11930169833738
-924.18715871373,269.394747441787,177.7181810302193
-938.8924862210848,273.553150158311,197.10706510378165
-943.1273676535822,277.3495536192278,185.25694299276515
-931.5668449470513,277.2598185924857,185.43029474897136
-931.6759545818401,261.7846053443327,185.4802608434073
-931.4036903529749,261.8529263306022,193.33411511576332
-935.229665584068,265.75232112902984,193.26273498085484
-946.9808752224257,258.06977918045413,189.18794899379503
-946.6535463180599,265.8757067908001,197.0163103608266
-935.1205559492795,261.91716845201984,197.2018987115886
-931.9217061891677,265.5850876701014,177.61518969270855
-931.0212967731081,258.0871143560747,205.12611340264007
-939.573656651354,254.07249162558062,181.46359868048725
-927.7949146752461,265.6238368861946,185.5261480729913
-942.9642130595057,261.94266135734426,193.1597436433441
-923.587565580499,257.95964982945253,197.38850677856357
-934.8748043419517,258.1166861262511,205.06798957850032
-935.2021332463178,250.31075851590504,197.24064792768175
-935.3112428811062,254.14591119291504,193.30148419694802
-935.1205559492795,261.91716845201984,197.2018987115886
-931.9217061891677,265.5850876701014,177.61518969270855
-950.751785778018,250.3964146777952,193.08224521115775
-946.4893720077704,250.46881452891662,204.92013072761856
-951.2973339519614,250.2587529890432,177.3765760988717
-946.7626559528485,250.4004935426471,197.0672961714755
-934.7381623694127,258.15135647749236,208.9949167146783
-943.1814126128698,250.30260078620122,189.27156572325924
-943.6178511520244,246.3308061366522,177.50506034170692
-950.8343827912694,258.0993509506305,189.1308448858683
-939.4920793543158,265.6789015616954,181.42586918060707
-927.7133373782077,257.9209006133593,189.47754839828076
-935.4478848536453,254.11124084167378,189.37455706077
-935.1470685708168,238.73901893103152,201.20428484752694
-951.1066470201345,238.7216837554109,185.26714015489492
-939.4645470165653,230.92901245583357,189.3929119526036
-939.2738600847387,238.70026971493837,193.29434618345715
-935.8567910550494,254.00926922037598,177.59479536844898
-939.1107054906621,261.9130895871679,193.2178674674838
-951.3523986274621,242.52216608117965,177.40206900419614
-938.9189988426222,250.37500063732267,201.10945123972002
-947.0349201817136,231.02282634742753,193.20359144050212
-931.8391091759165,238.57280518831612,185.55673955938065
-939.3554373817768,246.4042257039866,189.34192614195473
-950.8333630750564,238.79000474168043,193.11997471103794
-942.8000387492162,246.53576909546075,201.063564010136
-954.3880937934973,262.06604701911465,196.91331902331584
-938.7833765862962,269.71901719751395,201.04622883451538
-946.8442332498867,277.41277602443245,189.12472658859042
-942.8000387492162,265.8451153044108,197.07443418496635
-939.2187954092377,246.43787633901488,193.2688532781327
-962.5580600918765,234.976266105143,189.0329521294224
-935.8292587172991,257.87807253241425,177.58255877389325
-943.0182580187934,254.2050547332678,193.18523654866854
-943.8360704216018,254.00009177445918,169.62571316402648
-935.229665584068,265.75232112902984,193.26273498085484
-950.5070538869033,246.5959323520265,200.9483360780695
-942.8000387492162,265.8451153044108,197.07443418496635
-938.8649538833344,258.11260726139915,201.08395833439556
-934.9839139767404,261.95183880326107,201.1288258477666
-942.6633967766771,265.8797856556521,201.00034160493135
-942.1729132782349,277.58816721306465,212.7423737973722
-954.2789841587088,258.2319140583176,200.85248275404956
-950.8068504535189,281.2775004716188,185.12845874992993
-942.581819479639,258.1768493828168,204.95276164643383
-946.7086109935606,277.4474463756737,193.0516537247684
-938.9189988426222,250.37500063732267,201.10945123972002
-954.1413224699568,238.95621848439583,208.76853971539722
-939.4105020572775,257.97596528886015,185.37726950589655
-950.3163669550764,273.6765358200813,200.8596207675404
-942.9642130595057,261.94266135734426,193.1597436433441
-938.700779573045,262.01506120846574,204.99762915980483
-943.0182580187934,254.2050547332678,193.18523654866854
-923.8057848500764,265.6279157510465,189.5101793170961
-943.2640096261213,258.0055370590365,185.32016539796976
-942.9091483840048,250.37092177247072,197.12440027940227
-930.93971947607,250.38417808323945,209.07751372792953
-928.531149781016,257.71593765455077,165.91802501363873
-935.3112428811062,254.14591119291504,193.30148419694802
-954.4421387527852,254.3284403950381,196.9388119286403
-943.5362738549862,257.937216072767,177.46631112561377
-939.3829697195271,242.53542239194834,189.35518245272343
-938.7558442485457,254.27847430060217,205.02312206512931
-943.8636027593523,250.13128846242094,169.63896947479518
-947.5264233963688,257.9321174917021,173.482279881509
-955.095776845304,238.716585174346,181.28310891079013
-939.6277016106419,246.3348850015041,181.4890915858117
-947.2531394512907,258.00145819418464,181.335114437652
-955.1233091830544,254.1571280712578,177.30621568017622
-954.3880937934973,262.06604701911465,196.91331902331584
-944.1093543666798,253.93177078818965,161.77287860788343
-950.9700050475954,258.0646805993892,185.20391774969028
-944.1633993259678,246.19416416411318,161.79837151320788
-947.3622490860795,242.52624494603154,181.38610024830092
-946.5709493048087,238.86240459280182,204.9578602274987
-931.4577353122627,254.1163394227387,193.3585883048748
-928.531149781016,257.71593765455077,165.91802501363873
-943.4271642201977,234.79271718680693,185.39562439773013
-931.4302029745122,257.984123018564,193.34635171031903
-939.7368112454304,250.1700376785141,177.54992785507795
-947.4713587208681,246.36037790682857,177.44693651756717
-947.0073878439631,254.20097586841584,189.20120530456376
-958.7585974823209,246.51843391984016,185.12641931750395
-958.6229752259948,246.55208455486843,189.05334645368197
-950.8884277505571,269.671090535504,185.1661882498101
-946.9533428846754,261.9385824924924,189.17571239923933
-943.0733226942943,265.7767943181413,189.22057991261036
-946.7626559528485,250.4004935426471,197.0672961714755
-931.4577353122627,254.1163394227387,193.3585883048748
-947.4713587208681,246.36037790682857,177.44693651756717
-950.616163521692,250.43006531282347,197.00917234733575
-958.5679105504939,254.2896911789449,189.0278535483575
-962.121621552722,238.94704103847903,200.80047722718768
-962.5305277541261,238.84506941718124,189.02071553486667
-942.4451775070999,258.21050001784505,208.87866906639886
-950.2337699418252,246.664253338296,208.80117063421253
-939.1107054906621,261.9130895871679,193.2178674674838
-946.9808752224257,258.06977918045413,189.18794899379503
-935.4743974751829,250.24243752963554,189.38679365532576
-955.369060790382,238.64826418807647,173.4302743546471
-958.7861298200712,242.64963060780187,185.1386559120597
-958.3507109971297,265.93077146630094,192.91603146844236
-947.3357364645422,265.7043944670199,177.38371411236255
-950.2347896580382,265.973599547246,204.81102109282986
-951.4890406000012,261.7968419388884,169.4849923266355
-951.1606919794223,250.29342334028445,181.30248351883674
-939.90098555572,246.2665640152346,173.63625702966866
-946.7075912773475,238.82875395777359,201.03093309132072
-943.453676841735,230.9239138747687,185.40786099228586
-947.334716748329,246.39504825806983,181.3728439375322
-944.1909316637181,242.32536085207488,161.8106081077636
-928.39552752469,257.74958828957904,169.84495214981672
-943.6453834897749,242.46200282461396,177.51729693626265
-939.5196116920662,261.8100982496572,181.4381057751628
-940.0100951905085,250.10171669224457,169.69709329893493
-928.1222435796119,257.81790927584854,177.69778670595977
-947.7711552874837,242.42325360852078,169.6063385559799
-963.1576532251075,246.41136371747746,169.36262638107814
-943.8360704216018,254.00009177445918,169.62571316402648
-947.0349201817136,250.3321725563776,189.2134418991195
-946.8717655876371,254.2346265034441,193.12813244074175
-927.8499793507468,257.8862302621181,185.5506212621028
-959.1409910621876,250.28424589436764,173.3344210306272
-947.2266268297534,261.87026150622285,181.32287784309628
-946.5984816425589,254.30294748971366,200.9809669968848
-950.6436958594425,265.8706082097353,193.03227911672184
-954.6328256846122,246.5571831359333,193.03737769778672
-950.7793181157684,265.836957574707,189.10535198054384
-935.69261674476,257.9117231674426,181.50846619385825
-954.960154588978,258.06060173453733,181.21988650558552
-958.9503041303607,258.0565228696854,177.23585526148074
-955.2599511555936,254.12347743622954,173.37928854399823
-954.9876869267284,254.19179842249906,181.23212310014125
-938.8924862210848,273.553150158311,197.10706510378165
-934.9839139767404,261.95183880326107,201.1288258477666
-946.5719690210216,258.1717508017519,200.96771068611608
-935.0389786522413,254.21423217918453,201.15431875309105
-931.1038937863593,265.79005062891,201.17369336113762
-935.2847302595688,277.32406071390335,189.29909806100963
-946.2171077789053,269.8464817241362,208.78281574237892
-943.5913385304871,269.5089556576405,173.5016544895556
-935.7752137580112,265.6146594402778,177.5570658685688
-935.0389786522413,254.21423217918453,201.15431875309105
-951.1882243171727,246.42462002824615,181.31573982960543
-943.1273676535822,258.03918769406476,189.2460728179348
-946.6535463180599,246.56534086563713,201.00645990220926
-935.69261674476,257.9117231674426,181.50846619385825
-943.2640096261213,258.0055370590365,185.32016539796976
-946.9258105469249,246.4970198793676,193.15260562985324
-950.8068504535189,261.96815426266875,189.11758857509957
-955.3965931281325,254.0888070849883,169.4523614078202
-954.6878903601129,258.1289227208068,189.07272106172854
-943.3731192609098,261.8396700198335,181.38100166723603
-935.3928201781445,261.84884746575034,189.34906415544557
-935.5835071099714,254.0775902066455,185.447629924592
-935.1746009085673,254.1795618279433,197.22739161691302
-936.156587621665,269.38149113101827,165.76506758169202
-942.8816160462545,254.23972508450902,197.1121636848465
-939.3554373817768,265.7135719129367,185.35177660057207
-931.9206864729547,246.2757414611514,181.6043195178782
-923.9414071064024,265.5942651160182,185.58325218091807
-942.9091483840048,250.37092177247072,197.12440027940227
-935.3387752188567,269.5864540898269,189.32357125012112
-939.1647504499499,254.1754829630914,193.24336037280827
-942.6368841551397,269.7485889676903,200.98810501037565
-931.2945807181862,277.32813957875527,193.28312930511441
-935.5845268261845,273.3869364155956,181.45850009942237
-939.7102986238931,254.03884099055236,177.53667154430923
-963.6491564397629,254.01232836901494,153.63044464725468
-950.7793181157684,265.836957574707,189.10535198054384
-947.608000693407,265.6360734807503,169.53087955621953
-958.2681139838784,258.2268154772527,196.8684515099448
-954.7969999949015,261.9630556816038,185.1335573309948
-954.223919483208,265.9685009661811,200.82698984872513
-947.0624525194638,265.7727154532894,185.23654866850558
-939.0281084774108,254.20913359811968,197.1702875089863
-939.4645470165653,250.23835866478365,185.40276241122098
-946.9533428846754,261.9385824924924,189.17571239923933
-950.5621185624042,277.47701814585,192.9935299006287
-954.1148098484192,262.13436800538415,204.76615357945886
-942.8826357624674,273.54907129345906,193.1220141434639
-953.5427490529387,266.1398132899614,220.4595860971892
-939.0291281936237,273.5194995232827,193.18013796760363
-939.0015958558735,258.0779369101579,197.15703119821754
-951.2708213304238,254.12755630108146,177.363319788103
-942.990725681043,258.073858045306,193.17299995411278
-947.0624525194638,246.46336924433933,189.2266982098882
-935.747681420261,269.48346275231603,177.54482927401307
-943.5362738549862,257.937216072767,177.46631112561377
-947.2531394512907,258.00145819418464,181.335114437652
-935.8567910550494,273.3186154293261,173.60464582706635
-935.8017263795487,261.74585612823955,177.56930246312453
-947.2806717890412,273.4420010910964,177.3582212070381
-935.5019298129331,265.6829804265473,185.40990042471182
-958.7861298200712,261.95897681675194,181.14952608689003
-935.6110394477219,269.5181331035573,181.4707366939781
-951.8428821259046,269.4314572254542,157.680757445203
-935.8017263795487,261.74585612823955,177.56930246312453
-935.9659006898381,257.843402181173,173.65563163771523
-939.4645470165653,269.54770487373366,181.41261286983834
-927.8764919722843,254.01742695007982,185.5638775728715
-928.1222435796119,257.81790927584854,177.69778670595977
-943.8636027593523,250.13128846242094,169.63896947479518
-938.8374215455839,261.9814105734375,201.07070202362684
-942.6093518173894,254.30804607077854,204.96499824098956
-943.454696557948,269.54362600888174,177.42858162573359
-947.0624525194638,265.7727154532894,185.23654866850558
-954.7694676571512,246.52251278469205,189.11045056160873
-958.977836468111,254.1877195576471,177.2480918560365
-946.4353270484825,258.2064211529932,204.89463782229407
-951.0250697230963,250.32707397531271,185.22941065501473
-924.0240041196536,273.2972013888535,181.63185185562858
-943.782025462314,261.7376983985357,169.601239974915
-950.5886311839415,254.2988686248617,196.99591603656705
-935.6110394477219,269.5181331035573,181.4707366939781
-939.438034395028,273.41650818577193,181.4003762752826
-947.4713587208681,265.6697241157786,173.45678697618456
-932.1674577964952,269.3855699958702,169.7490988257968
-951.1892440333856,265.7339662371962,177.3255902882228
-962.5040151325887,262.0232189381696,185.0183293989283
-954.7144029816504,254.2601194087686,189.08495765628427
-951.1892440333856,265.7339662371962,177.3255902882228
-951.6797275318279,273.3349308887337,161.5944282706123
-943.3455869231594,265.7084733318718,181.3677453564673
-962.585592429627,269.72615521100477,181.06590935742585
-947.663065368908,277.2078130656239,165.56622292016135
-947.662045652695,257.8984668566738,169.555352745331
-959.0594137651493,242.58130962153234,177.28582135591668
-943.6994284490628,254.0337424094875,173.55264030020447
-943.9461997726033,277.14357094420626,161.69741960812308
-943.7544931245635,246.29715550162393,173.57813320552893
-944.1358669882173,250.0629674761514,161.78613491865218
-939.9825628527583,253.97052000428286,169.6838369881662
-943.9727123941409,253.96542142321792,165.69980574406145
-955.5057027629211,238.6146135530482,169.50334721846912
-947.8252002467715,234.68564698444428,169.63183146130436
-940.6372206614901,238.35866478359074,154.02813397031608
-963.2392305221457,215.49560757241264,173.390505422341
-947.662045652695,238.58912064772377,173.54550228671363
-951.3523986274621,242.52216608117965,177.40206900419614
-958.9768167518981,234.8783733486971,181.2382413974191
-954.8785772919398,250.35766546170203,185.17128683087498
-974.9363952012156,234.86001845686346,165.3000769885741
-955.559747722209,230.87700692897172,169.52884012379357
-946.6525266018468,227.25599465668705,204.9955897273789
-938.6192022760067,235.00277872668042,212.93917902647698
-934.3567885057589,235.0751785778018,224.77706454293772
-915.089250661541,234.92731972692005,225.06564423121046
-925.7768962897627,242.9586046203342,248.42632295432185
-910.0630694477728,246.77642212172353,256.4983964962551
-902.1378350405083,258.3573391525139,260.50282206461947
-929.3306072919906,266.23464689776836,252.21966726659974
-944.6355279325765,262.5198207338898,255.9273554169875
-939.3095501521927,278.30706714321406,295.19968592740645
-944.1450444341342,274.22820229130235,267.66836789321536
-940.4557111755801,289.6055227830095,259.82267135056316
-948.353413245094,281.89340906425747,255.8060091876431
-945.2901857413083,285.5266579310978,232.29237303258506
-917.7986366394233,281.5864744841511,248.41510607597908
-949.2528029449405,270.0820361693341,232.28421530288125
-960.8133256514712,289.48009768881326,228.12173372150534
-967.9747926152153,270.3675567089679,247.7023244431075
-969.2025309356408,289.36894862159863,208.37288982476178
-979.8351118883616,266.5191477211892,239.688374725314
-957.3411919462815,273.90699168421435,220.37698908393799
-946.1630628196174,258.2747421392627,212.7474723784371
-949.3068479042283,262.3444295452576,232.30970820820568
-964.3119719781987,243.25636175452377,247.84814386156333
-948.8704093650738,247.00585826964357,248.06636313114063
-945.0994988094814,254.6792227723025,244.1730866299909
-937.8279024947358,250.64828458240075,232.5218091805051
-949.279315566478,246.9038866483458,236.28762115503258
-949.7697990649203,235.19448537472024,224.54558896259175
-949.4975348360551,235.26280636098977,232.39842351873475
-922.4414045571119,246.66119418965704,232.7655213554068
-918.5603646505177,231.19005980635592,236.8005384101605
-918.8601612171334,227.25293550804815,228.9599404485732
-918.5603646505177,231.19005980635592,236.8005384101605
-894.7846614287245,208.00477227187673,260.78222430697537
-906.5368907832952,238.94092274120115,248.7281589533633
-910.4454630276394,250.543253812464,244.70537849316537
-913.6443127877512,246.8753345943824,264.2931072282584
-895.4678712914197,246.45215236599657,233.17034869195908
-899.1296722122233,234.94465490254063,241.00278892384253
-887.1327109665381,219.51736831639758,256.9338153191967
-875.7904075295847,227.0969189274625,249.2288396139355
-849.3614027216227,226.75225484747597,233.92697812198867
-853.3790846007557,222.87835295437284,229.95518347243964
-850.3433894347204,203.33447201643784,210.44393345332
-842.1724034201281,191.8055605125094,226.30357971376569
-838.3188958512847,172.46664253338298,230.3508333630751
-834.519433241729,184.00881034808015,226.44430055115666
-830.3936614440203,184.04755956417333,234.35525893143938
-835.0649814156722,183.8721683755411,210.73863143887058
-830.6394130513479,207.1573880988921,222.500038239358
-842.418155027456,195.6060428382781,218.43748884685394
-834.5744979172298,176.27120372400364,226.46979345648109
-835.1475784289232,191.5751046483764,206.78621139736816
-857.6680109925409,199.62780358226308,222.1207038081302
-865.3474937924776,203.55575043465404,221.99221956529502
-872.6180703910104,207.58668862455582,233.6434970147808
-884.31523507008,207.64175330005662,229.54321812239658
-892.1864245180567,223.10778910229288,221.52416982353816
-888.4960715432896,219.17474366883695,217.66760310605562
-892.2955341528453,226.94294177930286,217.58500609280438
-895.6310258854961,242.54969841893003,229.25565815033679
-899.7302850616675,246.37975251487515,221.33246317549828
-911.2357430926975,254.20607444948075,221.13361851396758
-899.757817399418,261.8202954117869,217.3555699448844
-914.6538318385994,277.51678707815614,228.8528702462105
-898.9400049966096,281.3356242957585,236.9249437881438
-899.1857566039372,285.13508690531427,229.05885292123207
-876.1197758663764,296.5283761529167,225.44191951379935
-894.3777946597462,304.65449465413775,252.61327772480922
-902.4937159988377,285.3023203642427,244.70741792559136
-910.0640891639858,304.70548046478666,244.52896758832023
-951.6073276807065,309.1065756399994,267.4389317452953
-1032.860354963214,301.92573406820884,258.39710808482
-1096.7251813820214,302.84143922746307,304.5331484247934
-1177.6804515303393,318.9070681629303,299.34177318452276
-1227.0958992112496,338.77419914037927,314.2326890426395
-1246.113606583288,373.7423075158184,313.8299011385132
-1257.9219203295725,377.63150515211623,305.7904585153952
-1238.62888958003,362.04208368810964,310.05695115049485
-1265.4882146298687,339.10662662581007,317.581437086059
-1258.2788210041147,346.64742802078183,301.96550300051496
-1223.944976113148,354.0148776595474,290.6803036714883
-1161.885047391311,353.64064180938453,303.38596768519324
-1081.3172694039251,341.3418445646577,296.78432492237414
-1000.4762074714608,348.4196947989375,294.0474066067414
-959.260297859106,355.52201822232877,259.3189315413521
-908.5385937093708,366.87859768626396,275.7384020027227
-886.2628930368679,362.625361361933,252.53883844126184
-889.7350267420578,378.19846736653193,260.28358307882917
-935.5957437045272,413.4082484844468,263.40289497432866
-993.0975409543526,417.7920084840389,270.3757144386717
-1020.1852824358982,402.5258370595464,270.0218729127684
-1048.329449914089,390.854165285801,238.24241713531126
-1048.931082479746,363.6705704802354,226.5513707535193
-1058.1595142071963,301.5565967991109,195.22568869083736
-1059.0058786639681,258.8641381103639,179.6587009835163
-1071.6503597048943,220.0608770579148,156.05227065307727
-1061.67753514197,188.68013031973203,117.06138181744022
-1062.8196173005056,180.66822003436445,85.67421086711569
-1051.1540638240378,215.36406418093847,81.80734501588209
-1035.542208603346,242.32536085207488,81.95020725732029
-1016.2532567186553,265.35463180596844,78.23680869613987
-981.4901113020248,276.693876094283,78.71933840812103
-958.2334436326371,315.1677688099402,75.01328180367405
-962.3061901872709,322.8666262179236,67.07703446130942
-985.4272356003327,342.3544227641448,62.74038535075689
-982.2008535024703,369.2004915032147,39.1503724513468
-971.0777890513073,384.4493277520867,23.567069284618096
-950.9649064665305,407.6845813810017,43.413092136458424
-951.1015484390696,426.9592572387105,35.49672926024688
-951.8928482203404,430.6230975919402,11.924867309427789
-932.4070911065451,422.80493338703843,20.092284317274505
-937.1059434159475,418.76073888636796,-3.5121473693870997
-920.2755273207467,465.3403557789868,27.979789224658784
-935.9628415411993,504.0100340075358,11.915893806753582
-927.8754722560711,558.1120974032928,11.85450689073231
-897.157541056324,619.636675113316,-3.5914099106218744
-889.1507293520215,623.5146558712711,4.364681109247297
-884.6966089337338,612.0499864887603,24.093140878893408
-873.7081470226836,569.3361137595408,16.55264539878552
-875.952542407448,565.9078278515091,63.626008881728225
-860.0490483498444,577.4969026120032,75.59900679640856
-855.3777283781924,616.2909862185355,91.23655886566769
-816.5999602310678,708.7404975195404,79.73171266436552
-793.4248698587185,716.2996538063458,80.05333115793874
-797.6057063319279,727.8326441751261,68.1779200848404
-805.5849856984802,727.8244864454224,60.209245766903074
-782.3272983128796,708.3703405342294,68.47241412714843
-762.7599639020461,673.5398938475423,84.58158494490985
-738.3561154930584,642.7872922965539,128.22115605227066
-676.2635558524063,569.045494638842,156.8731422045245
-626.985769860248,549.1436933101518,138.0552992102298
-607.8548739885691,529.6518178990788,138.4071013037072
-594.2957075046015,556.1001973150873,79.65197085651064
-622.4786241988855,564.7259767606675,153.7681063360067
-576.3721556290885,525.7157133169839,158.51488530741895
-523.3530308515141,625.4755701488276,111.87714459066044
-552.2630052056513,602.0271958314003,60.50353586596851
-601.7019063594603,521.4777727358477,95.35631433771982
-621.4334150805831,533.0964192665182,79.32301040620396
-623.6523175600231,610.7743215063249,110.42506870337986
-644.6187026150624,626.9409023468769,168.92516812571063
-683.398510194613,592.4194296727222,168.46119724880566
-718.0780388817793,554.0689226188352,175.92042134673923
-768.9904299633413,515.6317396868452,159.5886464796847
-804.5438554450297,488.64698954281033,139.52369055691804
-813.4235442276415,476.8264392019702,108.03383418394662
-810.2512070890672,476.62657482422645,88.45905584475841
-841.5972834760087,480.5963300413496,72.27768911911816
-837.5265763538007,511.5161650512663,72.2343511800666
-882.8131930883635,512.1126990358583,99.02627298822739
-893.5283710543357,516.2762003334473,122.39959619237966
-907.5525281314211,539.9152615827016,157.43092697302345
-925.619859992964,555.8126373430275,188.50371941488686
-929.1460386574417,582.9574829324999,192.28380741639603
-900.5093482483826,587.0281900547078,239.79442521146365
-885.1493629322961,579.1722963499259,240.0513936971341
-888.892741150138,536.7480230251922,251.91273268649337
-909.0056237349147,513.51378911249,232.06599603330397
-912.4216730483909,478.8954433981024,251.75467667348178
-900.9967725981861,459.462711527382,251.99227055110566
-919.9104689165007,471.28632101686105,259.51777620288277
-915.1014872560968,452.1870363477845,291.0514803730122
-898.8431319563767,456.1414958217129,314.82922302723154
-901.1609469084755,474.8696037892655,244.08845018431373
-871.2883604492871,493.7017228105419,213.07480128280304
-850.4586173667868,535.4285102455987,138.67834581635933
-836.2723254118379,535.0022688685739,103.57053631974222
-790.8031794751522,566.3432466744506,186.56319946158987
-750.1134434286938,504.7952154915288,261.9477599384092
-706.7989578500304,539.4574090030744,282.1034706041309
-701.5270250289345,508.88835637042223,329.3805733864266
-744.4591170277313,470.46035088434894,321.0178807237946
-741.7793028200254,516.4791238598299,277.7319471990945
-709.0647672752674,643.1605084305038,195.37762640657107
-724.9172755222222,774.4744637567366,155.4506380874203
-712.5409798453092,890.4467886587164,155.24567512861174
-715.6592720245957,937.0039717946496,166.8153752810593
-649.5510699372365,944.3724411496281,183.4795776335446
-606.6709834653017,917.1348013847748,203.836172393223
-556.0849015718926,870.5286718706185,228.29916434256347
-502.9270953893532,873.7754482927402,205.53705903647017
-484.2866830161167,842.5741716080415,194.14784865371968
-438.7532949580132,838.1771552976807,175.22089602463635
-392.13084998444936,872.6731350665111,179.7280416859988
-365.83950686523946,910.9124930531834,152.51997369132172
-315.0097127969286,976.3629781831717,160.91019869170412
-263.5517735414235,995.6274568787506,196.9377922124273
-240.37668316907406,1003.1855934493432,197.25900281951536
-197.38850677856357,1010.7335328578058,213.57650165958813
-151.8010737611723,975.4544110374084,202.60435520794564
-101.81448302937294,959.5927253445367,203.4058521513463
-36.71467830502771,958.9849744816019,192.60909688833598
13.62534606618978,974.1063462038517,197.23758877904282
38.02644124140252,1039.9065939948914,220.92865555515903
38.68069116364916,1055.5184492155836,236.58435857300915
19.73966645082674,1102.0888886622854,236.14282145278972
-5.681144937363932,1149.0264259456594,270.9253414774669
-25.876522563770504,1191.4262260812816,235.15879530726602
-60.31295090576293,1226.5146609698522,234.52453182279376
-68.5656161890146,1245.746508746616,214.71246552084557
-68.56643196198499,1284.36316173209,206.73318615429326
-106.04028898757477,1396.9194373205937,213.64176349721876
-201.26138895545373,1556.2806870847846,211.67779007102325
-322.80340381271895,1750.7711603860648,220.97454278474302
-456.94299276511356,1952.8177308255115,198.66111261236
-619.6927595050298,2193.277011007837,120.84350925137537
-739.0709365583559,2340.9727072955598,91.08513100804048
-855.493976026472,2399.5859952175315,53.82184538043063
-987.5207129855762,2373.31810557122,28.38512641931751
-1091.8917265325063,2327.6960022025874,26.97567466973942
-1227.0041247520817,2255.2961510811547,33.04522951262664
-1338.3979238577906,2171.2919294560324,59.13242544599839
-1379.2783468360756,2070.584756262332,11.764363977505061
-1366.1545991750497,1919.2792645806674,-22.850106815273314
-1330.9437983409218,1755.9513187479924,-84.56557540036609
-1291.847878735348,1596.457505876115,-146.23546267073874
-1176.9258615327356,1479.5368448960655,-140.19568354127048
-1071.1812902469244,1327.5481433517054,-169.4951894887653
-988.4710884960717,1148.7307082438958,-191.2008687982135
-897.7030892302672,1000.83208842979,-208.96534494450194
-799.3636970831019,852.8416941565163,-230.54152029490194
-719.0926565136923,682.1299832256683,-213.0646041206732
-627.6424671014058,515.0943492426059,-207.20633447711504
-582.1886169079146,383.2348457424299,-202.15669979044836
-552.7494098392418,262.92974665150695,-217.00784671625888
-539.9050644205719,174.33884150041047,-161.5719945139268
-521.4818516006997,92.87860788342606,-168.87010345020983
-525.6881809792335,3.9960944869042954,-160.78477359750784
-537.1375546185498,-57.67739238170017,-145.04953271504542
-543.7259410706001,-111.40399626783868,-101.79592419429673
-585.0489208853177,-191.90957156623315,-55.04785018329399
-568.8425711124594,-272.92908383596847,-15.285546032539147
-567.5322357787828,-318.9437779465975,31.984724651129596
-566.9040905915884,-365.12876466479383,59.62229711471298
-543.8646224755652,-376.91362493817974,60.00713801349085
-517.9811658415463,-377.3959507069183,28.999505437636707
-503.90398352138607,-373.98805912314606,-10.047294437957918
-448.4018497652104,-327.6715290134756,25.94943227299843
-476.66736347274554,-272.7241208771599,88.13458214578884
-520.8924556295983,-217.79506763267784,134.3822814110833
-564.9533734761617,-158.9625407249163,184.54416135989356
-629.6451897436945,-81.01349594407877,191.16109986590735
-658.4562516251729,-6.893454951487002,233.65063502827164
-615.9177700845855,213.9415600638343,304.18542519616796
-570.2548780674339,479.9110807462284,233.32942442118363
-626.4188076458322,804.1716590272928,101.88158035618689
-724.7826729821091,1271.6982863669043,-54.22922200751532
-891.7183747762999,1755.4006719929846,-191.79842249901856
-1073.883538211316,2135.9995513248664,-191.88713780954762
-1193.547235804276,2269.174488739784,-115.63581855169707
-1236.548668505555,2367.8830181560475,67.84406499671142
-1141.61308907731,2541.571280712578,104.0018762778319
-928.0365874177218,2786.517312232006,-7.439349828942605
-715.7734802404491,3005.0832853216953,-40.31876328817691
-529.1450189412287,3065.8685687773095,-2.4067342058705066
-328.08043521487974,2890.701717711961,56.140680048742446
-209.51599169951007,2549.708616092142,102.23776722938008
-147.29902668087473,2196.947989374557,80.81210199201563
-111.23880224133626,1863.8984770538361,78.55118720460096
-29.538425456195547,1561.246705041987,53.32361203876962
96.45974925178324,1239.4344653882827,87.69355488367589
187.42180051291726,944.8364120265331,105.74865015066308
294.94271744173597,677.437249213544,151.43193649207427
383.24810205319864,514.4713026364763,176.85244196540106
474.6687196953089,459.42396231128885,158.78409038764514
544.8761809588393,482.27274349548526,179.38133817358633
599.8327665410717,509.1422657074537,203.66180092080376
642.9840975256586,501.28229313781975,227.88312012766852
627.5445743449599,439.6047579958498,239.63331004981316
654.658828448043,284.9545971356172,275.8832017049656
659.0864362447932,211.69308581421794,307.59331677994015
611.8368658002479,146.1447079277837,291.40838104755454
612.246791717865,107.62900684739438,311.1674221064278
611.5931536253461,72.70780541775224,299.5018686299603
601.6774331703488,49.04192563209659,240.56329123604903
615.5374159371448,60.118592995569344,193.63799054723074
612.0102175564541,106.57258085074925,193.42894872357024
569.5380175697104,191.84125057996363,172.881667032065
535.5090678264239,323.5773684183692,164.07845696542654
505.3876706112689,463.020501394462,155.30787781760338
470.42975939795963,617.696155160019,115.0158310942065
469.5273105494742,779.6688981456462,55.58656625861023
564.3303268700321,1045.0153722219109,-42.00394630174423
727.2320313256821,1426.3586443892666,-87.94583267476663
824.5384509491009,1951.0740161013193,-166.75113315964168
767.7596324942768,2619.885485869283,-275.82201873218685
482.79891706138187,3295.1007734547475,-301.99201562205246
49.50110384280055,3855.118720460096,-361.39150474422974
-357.67973772899006,4035.241392320518,-477.987895968552
-495.4627727103548,3776.8045153033913,-510.57700641911356
-555.8207950727312,3432.9052224765855,-514.2449256371953
-682.5694809134618,3105.729275542617,-436.54764878934196
-795.0492777859923,2809.042843376689,-397.98504076315567
-772.8775881672132,2538.2979916689187,-369.26779277327125
-704.5718976408866,2213.0900970259977,-331.8258528651477
-694.4501945108677,1892.1038275048056,-307.0436897411451
-734.3159998572398,1606.2875701692221,-287.0531731019258
-727.6929430539482,1316.3108706846886,-258.50315857096973
-712.6562077773756,1068.937914578373,-218.19785553680416
-697.7285821355918,844.7063982093784,-185.82084605854192
-706.9315209577176,670.6051505865918,-193.21990689990977
-719.5515288095324,481.19592317458057,-184.9214563586954
-704.6799875594622,345.77353122625976,-172.46766224959595
-705.7690444749228,210.3348238185313,-175.95203254934154
-754.5512483875738,48.85052489892063,-105.4947408136316
-788.4925025365442,-116.7575063859728,-50.49950798692724
-790.1617779771891,-251.3467901882906,40.19578551289177
-852.8865616698874,-377.5856179225322,145.64708641585048
-894.7826219962985,-423.4769263713909,168.72224459932804
-898.4709355386398,-458.1635930720481,180.55707096714985
-840.3705648717963,-435.36375826607457,185.27529788459873
-787.8939291195262,-432.28727445152015,142.88059633004139
-757.3942171893564,-421.022469446753,131.52503658231916
-750.8598756965937,-413.65196065934856,96.2767101915537
-775.1811270923304,-390.6033150974084,56.588437437861046
-837.6285479750986,-328.5352286458679,20.12206003069346
-940.6107080399526,-234.77946087603823,30.037066684341752
-970.4955310936967,-74.97086160921417,135.0155251793426
-905.8730555286465,211.07819693779226,162.49075882181992
-834.8732747676323,534.3567885057589,32.950803791304885
-937.7463251976975,1044.2301907379176,-150.84254052097305
-1112.3880224133625,1643.853915455329,-312.4665405617617
-1306.2564688247262,2217.5972426873604,-356.55193159743646
-1348.962183824242,2489.1782616897717,-311.0124252420552
-1298.3536681741473,2509.225882436918,-188.6587162792595
-1230.2570194714813,2644.5320267369593,-141.0002396333101
-1079.736709273809,2890.5997460906633,-182.74640167641348
-814.3402691031087,3147.16034527591,-246.35527932576366
-546.9533428846753,3203.4180887459024,-211.14243905920986
-303.01071211881737,3097.561348676664,-152.18652648967793
-91.25634136019947,2856.4392529559027,-105.03076993672663
-18.224470129962832,2519.8411282140187,-40.007036041869554
-5.911101140552585,2117.308153140981,-46.31387884751674
50.153824190727725,1714.7955723922037,-12.719226239337594
176.58833546623978,1377.6366037331811,37.40747350012492
324.3982399698164,1063.0439548673605,32.83363839843372
451.56704889029385,830.3508333630753,82.61893714979122
582.1794394619977,655.4511479455268,108.71296518178991
628.7774112464501,570.2222471486186,137.17120525357797
682.7530298317979,554.3646403205988,141.95775315729634
730.1402619650952,562.0186302152111,174.03904493379494
740.5199532969975,535.5967634207401,256.70030030642477
724.3900822401126,497.9131507701407,354.70114667088154
724.327879551121,437.103394125415,476.5684510000867
729.4376774943535,344.702829202633,531.901311864908
772.2637190070004,271.1099101120158,560.2636986126761
810.8283664656127,139.51451311100124,588.7576287519184
821.1356579463936,77.3207976220218,565.5743806498651
822.1543544431586,22.5132945501267,495.1313649411369
803.6872938261282,-24.47645220335181,416.5204223664555
751.819428653006,-24.53427011262766,364.72393732824156
683.3373272218342,17.70665823701264,269.36517567161064
666.857693503898,137.27725573972765,213.77024774005395
664.0188035669674,275.59360230047986,103.37169165821153
804.3552079456288,497.9213084998445,-5.166035292378131
973.5985275297885,936.7908511061373,-102.22655035103732
1033.2376499620157,1624.2243783555039,-189.9945445182606
885.6378069983125,2471.812494582758,-289.2557601219581
533.6919335348973,3344.1287289747265,-399.51053621777066
104.17114916918624,4061.4277046697907,-604.5948412556786
-170.4057960669546,4421.458907985908,-821.8514987279041
-316.5545828595902,4379.181473795843,-918.0892557601221
-476.694895810496,4055.46236482387,-915.4716442414077
-766.8143555648463,3686.6717992382723,-875.40189565244
-904.2231546960481,3390.7093655835583,-778.3463262174138
-934.9319084498785,2904.376112127995,-675.125552558723
-954.6511805764457,2336.710293525312,-571.4663009284517
-1010.3072914807811,1842.3824649600017,-519.611692066098
-1067.7244522849294,1472.184691000495,-432.8817690036863
-1079.2778369779692,1144.0094221778081,-365.22869685366567
-1016.222665232266,896.7221222333825,-273.18401288921297
-970.1121177976171,664.6173769839854,-228.5387976526133
-922.529100151428,429.0211234213519,-140.69024590456476
-892.1068866534445,235.58605640050376,-112.1096398872194
-885.242157107677,76.97745917311212,-103.6225418466041
-870.2604865066054,-100.89755421066319,-79.25020266859734
-866.022545925469,-259.16903325804435,-35.4819433751587
-872.6354055666309,-394.0010095190509,23.74317427459938
-943.8034395027864,-528.0885929445835,109.4716340442455
-995.7865326079753,-635.3127724554257,187.54620589090058
-1006.3089842096946,-700.6153987345323,230.78013388873882
-971.2450225102356,-723.958742282023,247.08233698561693
-974.3429203652624,-765.2235982726008,388.4619110501548
-797.3497575624705,-655.6601897691874,249.45725604564254
-757.1464261496027,-521.3696828172721,159.3398357237181
-797.1560114820046,-440.3420128178328,99.59792589722281
-870.6734715728613,-347.1664635731876,70.7099774132859
-909.919289461743,-235.05172510490334,26.57309070885573
-975.8663763874514,-122.66064354290202,-10.115472663957622
-1058.5775978545173,36.85060647621767,15.579836131604576
-1080.9705658915125,320.1256290374389,88.85654122457721
-1043.8732900633756,895.8869746549536,40.3743378217842
-1071.8135142989706,1475.1418680181307,-107.20888376764748
-1298.1395277694219,2101.788072379457,-320.7180841571791
-1492.130340126343,2612.7168808920483,-466.6343756532558
-1506.1718323790492,2853.614639045954,-365.61720873081026
-1399.4891221772982,2827.4283266966804,-171.62435694146322
-1342.8948723570231,2931.9492385269186,-116.18442587427921
-1263.479373690302,3066.1133006684245,-186.0900511387681
-960.4166560446229,3102.0379028516368,-228.76721408432036
-581.8215190712426,3002.8195153288843,-175.6665120097077
-272.8301713633096,2753.4581126072617,-99.55356824195827
-53.91321195311345,2454.212192746759,-56.018721989670276
84.29912355391495,2167.2232617662507,-9.809425236956555
83.05201062544295,1815.482351261644,26.68005893959711
90.24672033773001,1529.5131364941137,70.92340401666216
168.0390347366328,1238.4657349859538,41.67355824873938
266.81690485537877,959.2755936023007,59.79350746687197
396.50339310569876,730.0780592761035,70.3585832062937
469.66803138686515,567.2997404822239,103.40024371217493
527.3074903254425,485.7122462818598,116.31291011711443
550.0736744963878,473.86008473841736,108.84450857326406
608.0394426231181,496.6252491931496,109.63580835453493
639.6577832389247,492.72381496229605,133.6705194944247
673.7581131171196,473.9977464271693,232.3606940188546
669.1877450505525,455.53374495877796,326.544742598135
678.3335797647516,375.73177384733833,495.70954403389544
738.6171628435807,341.1511576328308,575.2219157408493
788.822890589549,279.001493884252,591.8820392284828
849.6611992882382,220.3922848271326,581.2168273569466
839.9922501567816,154.30753621267203,538.1246399127123
814.5819418455844,119.15383948647094,478.9933361545483
761.2681190824594,126.45704700381884,383.97923857790386
699.4570011165894,176.10295054886228,257.29785400722983
631.1105219417436,256.9970377244013,157.88572040401158
560.9540464888622,396.36165255209477,105.34484253032382
523.316321067847,562.945552252808,96.369606338556
526.3744499905677,759.673282925362,32.95783983317443
733.5552915623583,1074.5157622633621,-55.26719114070554
952.2242559895582,1772.5726930195328,-113.21603197830046
896.8414290303009,2595.2185506773467,-324.82550106305416
572.7215715866275,3543.7789663136755,-536.9611437137046
73.25365950655933,4436.254990236218,-684.8148960144393
-504.7778803159081,5058.618386503037,-821.161150851718
-891.6480143576044,4922.18035720659,-842.1938174606008
-1011.8215700570532,4331.061065705415,-853.7737147751782
-1175.8653566712385,3671.3760560436035,-783.3623102690522
-1253.7716753427521,3223.7716243569416,-716.3006735225588
-1228.0340381271892,2640.106458372635,-631.5296253052777
-1219.3562531547473,1959.5988436418145,-574.1583517307133
-1243.982399698164,1376.2497896835312,-497.99166891854003
-1217.3066235666615,966.6114320384638,-421.6424569042436
-1147.6905977066585,691.943732059368,-356.8792605018024
-1065.1853589146142,529.5161956427527,-276.60312135132796
-1026.5891002533995,382.48025574482625,-244.1322979814718
-1008.0027328394509,246.99464139130083,-235.5473071844106
-973.0468610585675,150.24906568501987,-207.22468936894865
-965.0380099218388,57.57909173876911,-179.32015520080762
-990.7552528131422,-34.58306353341865,-124.4492257804653
-1011.9653500430832,-130.47268945052593,-49.87605349431254
-1057.109206507829,-265.00792829355595,8.770834076876406
-1113.9277938949592,-453.547337775897,75.2743291541964
-1113.4587244369893,-619.4918754110732,122.93698663661904
-1069.2438294422664,-708.1847521834674,194.54145911192916
-1007.7804347050217,-755.050909331933,199.54520656901187
-897.6663794466002,-756.3245348819424,154.10257325386348
-829.6951558381304,-722.4516017192417,107.91146823838926
-799.5503051500768,-684.2418155027457,80.76172801109452
-819.6366751133162,-626.3708809838223,44.94409405862349
-876.9222925259901,-552.4180020700239,43.83647830808687
-992.1186133898937,-454.8760280014073,33.932688532781334
-1074.1180729403009,-329.9434567359904,87.22764654596627
-1151.086252695875,-212.4701095685071,175.9448945358507
-1111.6028409293694,115.73167187571701,136.18310024320232
-1118.6082913125279,674.9481219376648,-69.88900389021737
-1276.4705582436409,1617.5044485119793,-373.7045780159382
-1457.0928910484213,2682.047386212417,-470.2676245200961
-1566.8755385376253,3337.06209561879,-438.8002019038102
-1582.0999015973857,3479.2513243564317,-129.46317039967778
-1632.3923052214568,3283.6289660587463,15.654581330015857
-1597.4874192512227,3212.901449526597,-73.85019349115142
-1271.3005970438428,3210.036046968129,-108.201067642875
-818.8025472511001,3163.4860018456866,-156.21032666608886
-392.92214976572023,3128.8258477665668,-196.80930796959208
-117.6772904100789,2890.5487602800144,-207.58159004349093
51.6608627818878,2684.5049022856942,-169.0281594632214
161.82794328338423,2367.566906130024,-36.79625560206595
139.04442393681842,1873.5042037800883,74.41848133664402
123.12257498738101,1375.3116507675916,162.20217913354716
212.20600306934585,948.9366909189174,153.20114412159097
401.7763456430076,641.5799483003881,129.60491095328172
547.8568114493737,474.29958242621086,155.90543151840845
700.7398041125156,507.5515084152081,114.91283975669573
857.8627767892198,725.2456241428011,-64.00075458999761
821.066317243911,688.3563704221116,104.33124461462376
810.0503229951106,707.8920936303427,115.8744321455339
835.2169191314059,708.2265605481996,175.11892440333858
849.2869634380752,658.5623021113225,257.91478231608147
892.7125980839533,592.842611901108,301.9573452708112
916.5443856974605,500.1575461549051,341.8731167116192
927.752086594301,391.8463491610285,354.1810914022628
950.4387329006339,310.4587193384082,358.7198482662276
930.1647351542067,206.08362692662632,350.9190192369464
865.7839323316322,128.63821998337863,287.42231037102374
778.7175029189377,93.96093467188082,227.36510429147572
684.2693478404962,163.69606338555982,155.07232337240546
627.9198299113358,267.7815563928559,63.61061116691226
542.1484400891233,481.588513916577,100.85085120810879
513.4250738019609,678.3142051567049,9.490631357293266
570.6780602958198,851.5160630796449,-41.25618840276751
840.4480633039826,1215.3283741134844,-222.89976699484538
1028.3634064639812,1892.3383622337906,-497.09227921869353
921.9223690047061,3043.3838262811464,-804.765133863246
340.0886133389078,4304.997119301698,-849.1340060061285
-666.7292092610627,5290.563036306997,-985.2783570332379
-1410.634620385147,5476.763216796766,-1150.107325131416
-1596.5390831731531,4517.342823492222,-871.009977923144
-1467.0963070977348,3945.251436525216,-1130.0902958706592
-1349.3394788230437,3005.4605803204972,-983.8701289431152
-1388.1906665375027,1887.7190477890006,-541.1236252950805
-1348.493114366272,1272.6670167692334,-491.3584149531186
-1157.449281864857,1077.6768825235938,-495.6881299934229
-969.4207502052179,983.3368173637278,-496.47841005848073
-872.1469615006145,896.8689613680514,-561.4486088521566
-840.7162486679957,769.3401926243927,-517.3764741272505
-849.1013750873134,614.7532541693647,-505.20616112535885
-833.5211310692234,464.0616316479124,-469.14287753718145
-835.6523379543474,283.0140771823202,-382.22226754294286
-888.9151749068236,71.19780964957454,-319.5117598772262
-952.5913538262303,-190.4462788006098,-213.61831002432024
-990.6848923944467,-437.1992474494349,-150.5631382786171
-1062.2077875727186,-679.5082928421022,-52.70097331912529
-1133.394176400708,-856.0833719975732,41.019104383250145
-1203.938144014521,-959.118557305502,138.42545619554082
-1203.7851865825742,-988.9789071701347,260.1918086196612
-1110.5933218785212,-966.3432466744506,277.2098524980498
-1035.9195036021476,-921.1973507772789,199.68388797397685
-933.845910683057,-795.0513172184181,118.3696777186909
-957.6501659588138,-737.1161405780773,86.42115299312202
-1043.4654035781844,-671.0691214634968,41.7420831782515
-1144.233759744663,-553.5886362825227,110.47911366266769
-1107.2894413484728,-276.2268460687391,8.057083713602506
-1112.8468947092026,-28.466805687977043,18.911860829131253
-1170.8789443897765,196.90822044225092,76.1515910122213
-1194.424191747437,814.8858172770518,-63.64752489382205
-1280.0905507997127,1637.898772771538,-260.01335828239
-1454.6047834887552,2507.890054197917,-473.56742618529273
-1627.0489922654526,3155.4098494389013,-470.48584378967337
-1767.6372665487195,3438.054789352124,-139.95197136636875
-1736.6888794848394,3273.778507441379,120.08993896998467
-1473.3369703211597,3356.0492115044385,33.49125338418318
-1240.658124843856,3500.3900414514646,-61.625835529972015
-893.2601856903225,3477.5483982807586,-146.6117379533276
-562.1042863771013,3285.698989971091,-109.60725630057156
-214.78690480439295,2961.6127831624462,-134.70757088302327
40.92977724299328,2544.7833867834584,-227.58638270969195
151.11378503362516,2198.814070044307,-311.111337714714
209.71279692861478,1924.377845645557,-230.81480423998005
257.4334762635559,1592.2664722407756,-119.0906170812663
385.5608184242326,1186.0217301524988,-5.91130508379518
550.2582431309368,771.2725548479859,52.89961403741339
733.3778609413001,390.9143285423667,80.47345423768566
832.2628012624087,204.4418838237319,82.58365496882219
888.6765613129868,83.92845671049749,68.13682552145738
866.7016769233123,92.11810353178711,99.17698704450552
828.7294845844402,178.51457939255508,208.2056563658334
850.2505952593394,233.99427939204523,373.1753453014027
886.539236130585,268.886928767724,412.847404567309
888.0310809501717,293.4294585816767,561.9227768911912
992.9007357252478,268.66565034950776,481.1602331071263
1144.702829202633,180.93130681731276,322.8207389883396
1138.3194057093913,33.57323856770661,280.05078186740633
1001.2654678203057,14.757944863944365,219.19207884445763
850.268950151173,147.04511734384323,169.3891390026156
728.1008295391393,271.86450010961954,174.98738101186441
690.0287050113955,318.6205279070835,178.18317162333724
703.4502098066109,402.9643150311269,103.53178710364908
694.3757552273203,595.7753157296324,24.253440267573538
661.9059515736772,904.553542749053,-87.16401625427645
655.6438743097797,1297.8947958783071,-237.7203224342666
730.3564418022465,1833.5109339070939,-415.016340952313
905.7211178129128,2472.740436336568,-599.0027175437076
961.4169976495543,3173.642375326947,-914.5029138390786
690.9770410894648,3967.2365180770194,-1101.7625794741325
107.52907465852255,4567.064186037026,-1167.4730922384301
-606.4966119928824,5017.401457174468,-1191.4568175676711
-1216.5112449205387,4971.606002049631,-1223.985764761667
-1478.9352123304086,4196.295370998252,-1189.9884262209828
-1509.7714306108612,3343.0478297889704,-1014.8847975608389
-1509.0780235860361,2628.7672140843206,-847.6299245919861
-1443.3777079838683,1874.2383994534323,-797.005093482484
-1401.4979631168646,1182.5037092177247,-668.4566085258473
-1323.1021806631215,672.4722509725543,-524.2748543080461
-1167.8707815614916,304.6769284108233,-414.74407672344785
-1050.0629674761515,235.81855169706276,-224.3661189091076
-967.8585449669358,223.92968036995308,-183.84769518642963
-972.5737127357457,229.59828279789738,12.293188805555415
-862.7247836926985,242.70979386436758,-154.864301264958
-726.7802970433329,194.59754350364295,-223.3086731962495
-797.4364334405735,-34.912431870210526,7.959700815263114
-1027.5170420072095,-299.31628027919834,91.74682485864184
-1077.6972768478533,-426.39229502429475,114.97198329704845
-1059.0772587988763,-577.318452274732,127.53386732472354
-1062.931786083933,-751.0740161013191,163.38403022438857
-1036.7964595453086,-871.2118817333138,164.18042858672433
-994.3528116125283,-960.3493547745663,184.7399468727853
-956.3908164357861,-964.6525571933332,169.6246934478135
-926.2469854639455,-887.8240785589372,134.49546991072387
-915.180005404496,-764.4557519642284,94.99880183344976
-966.09647535091,-571.1797606726049,30.79012710762595
-1067.6224806636314,-354.4768091040264,-53.8787455451148
-1130.3248305996442,-95.51406443586751,-138.10832445330465
-1164.383352113107,206.1376718859142,-182.80758464919214
-1231.327721495108,570.2997455808049,-188.9625917107269
-1247.4698291465486,1131.2119837049352,-214.64516425078904
-1270.0055574533608,1892.3281650716608,-354.912227926968
-1386.5897120831273,2728.13855903902,-445.81890859773733
-1458.8570000968732,3283.1904880871657,-311.41215399754253
-1443.0208073093258,3373.9962168528505,-95.62766082199326
-1378.1668561639297,3111.7150097127974,51.43958436367159
-1426.7971223608472,3075.7190273946767,-121.85098886979755
-1314.0674950161372,3189.957834734594,-226.51262153742616
-989.3959711012426,3384.6624484405993,-234.07993555393537
-631.0330235095573,3425.369519662678,-126.80884909729625
-329.69770512866273,3318.972330000561,-78.76542958094764
-32.227621053060936,2875.6099177598876,-72.81395787552324
156.04513263958643,2416.3195382724994,-213.65501980798746
188.5750995497953,1883.5688028021802,-54.385952389450026
160.9051001106392,1223.2209776019336,61.24130054605804
272.55688741823155,724.143310916572,162.7130569562491
456.2189942538992,459.7788235534052,182.05401436780144
590.1383245042905,361.9503092289416,176.54142852044276
713.2027756675318,384.107722820739,166.53597303870333
789.8354687890361,418.16012603692394,147.94552675990275
871.1394818821924,394.45988181489093,164.94215659781884
939.6858254347817,335.79050950120586,154.39319237456218
1052.632652332856,273.43894194245746,203.39055640815164
1148.2004558131473,227.15504275160225,303.09330913206855
1238.6084952557703,207.6060632326024,359.45812280442357
1321.7357609377311,192.08802190350428,427.4742139262644
1395.5530175952035,160.777635584017,452.23394329358143
1381.705271422963,106.22587733833676,397.26512111679324
1308.9587167891177,71.15640917132764,306.0280523930191
1190.2739467606166,40.38096597716856,221.93715488979421
1040.1309315617466,56.02891915180007,109.74593770553658
868.7268333222864,141.834367495526,36.245608847057866
772.3881243849837,239.12549137575016,14.851248897431846
707.8859753330648,363.46458780521385,17.39024029612559
680.6626115951931,541.2582278351936,-26.78814885817277
672.9484584440152,850.26793043496,-90.74005904156874
689.5086497427767,1220.1822232872591,-244.80021210097232
848.7179617912335,2102.6446339983586,-500.49303278897486
927.9009651613958,3152.0243916118147,-765.7966787842944
764.4516730993765,4183.997593469738,-1026.8236349823844
50.598318487964804,5149.0060316214,-1040.7733527759226
-854.9443489876769,5068.1731274186395,-924.5532368341892
-1380.6957523721148,4504.10690704777,-863.807722310881
-1401.5591460896435,3967.0427719965537,-799.5146150826226
-1377.147139950952,3550.1114039962686,-676.0789872178574
-1326.5794129493763,2978.2749460825057,-543.8799182187598
-1243.4113586188964,2277.22004966018,-555.9676342074001
-1146.5893041966422,1700.1728418980997,-532.9475406994234
-1083.3363075056213,1320.634467427715,-518.9458173790235
-1022.5000382393581,1049.624489504571,-485.7234631602026
-956.3836784222952,786.6600725018228,-413.2022658094253
-940.1181851090843,500.9743388415005,-329.5783983317443
-944.9281864857011,215.97997277357715,-187.4024259048707
-936.0444188382374,-3.9130793900057617,-108.0348539001596
-933.341151157633,-161.57301423013976,2.426639066347836
-905.0827754635886,-308.2112648050048,70.06317141939398
-921.1198523450923,-455.00145309560355,82.09204978254553
-991.8799997960568,-569.6766989746754,175.60940790178097
-1071.3240505167414,-669.0908720103196,237.54901011048628
-1151.127041344394,-760.871449475611,287.68335772154614
-1154.1046126862896,-849.4460391672999,331.1079726512112
-1056.7625029954165,-880.8318844865474,367.9941672232618
-949.874829834857,-889.6422325666769,342.1525189539752
-824.947357150505,-879.5990475850573,277.2710354708285
-795.6488709192232,-787.534989012558,214.60539531848292
-844.8104092631022,-679.7774979223283,107.54131125307828
-1015.8932968954741,-489.61877909377824,21.91981971417355
-1151.5451249917148,-263.7852885541954,62.29691076973279
-1271.7798636639425,-18.761350716095713,98.91553180749798
-1354.458454212193,279.7846359358191,96.66991276327799
-1400.1927263642528,586.2328114085851,-285.73671947097125
-1540.2303538925119,1211.7287758816722,-121.18613389893595
-1552.008076152407,2058.521513462804,-190.93778201526519
-1599.7511892440336,2839.603738279637,-284.5538486639169
-1552.0692591251857,3161.0080914481505,-642.0653332177656
-1464.3532704848242,3172.6838420867475,-558.373144753815
-1676.1585250824699,2965.9363799054727,-70.2708876119776
-1934.4934304782983,2861.751974425518,165.6131298659583
-1631.5357436025556,3051.1336694997785,-22.794430310044717
-1072.7516532149104,3581.6308321394163,-345.88162114483544
-632.2301703435934,4056.431095226199,-513.5688537879909
-219.57957100538923,3925.8870256407645,-471.6258865157827
210.4153813993566,3115.018890242846,-344.7099672161238
111.39685825434783,2269.3274461717306,-249.1493017493232
58.99598741670194,1689.8533138227633,-196.9602259691128
209.45276929430543,1287.0960011828709,-107.00596024126486
439.65778323892465,968.3847185328325,-67.16065119077362
592.2481173489418,669.439614955158,-48.168028837574504
770.3323764996203,359.32555969673643,41.887290766979554
943.2497335991395,211.11082785660753,60.67596987758308
1033.4925790152602,129.73135576369097,125.09572585949331
1116.8339851019464,164.47206742363602,189.02173525107963
1162.5478629297468,211.321909112694,275.88932000224344
1232.7757185175367,281.51305491681666,398.3684540592354
1284.5773021368154,336.6185190661439,548.0933856107846
1311.9872739416621,403.1651991250835,658.168691653113
1302.1164210000359,411.4024666935193,705.0888937608664
1228.9211912324802,338.59880795174706,719.936981538038
1212.8096750674288,213.96603325294572,614.1506018874948
1178.9652939586915,88.86989950696722,441.38314307128337
1129.1623541168494,-36.24377335787451,252.67751984622683
939.7837181912274,-43.647422922200754,124.27689374047203
881.7486093620147,-237.35118516516857,45.56918009717896
756.3173968684516,-176.13660118389055,-140.97372701177264
550.1470940637222,-5.99451392677418,98.69088832577894
437.1676362468325,206.09178465633016,351.38299011385135
503.7918147379585,630.5517174570318,-147.4774770181459
695.130345224924,1337.3272218341635,-551.2320721143307
841.8338576374197,2252.532720143984,-618.8402767509803
857.429397398704,3104.944094058624,-900.1300138171549
693.5661005542158,4006.5057894387996,-1035.1343221181546
104.5280498437285,4719.909449200288,-952.1773490437612
-662.375021031647,5239.454859712543,-1071.38523348952
-1188.866738386707,5415.682215639388,-1295.7126031825344
-1414.0914583471422,4836.69754707265,-1340.3047931760593
-1473.3981532939383,3848.113270076938,-1180.88236043909
-1306.2156801762071,2974.420418797449,-955.6464236003121
-1197.7280722774854,2147.287809802532,-766.7745866325403
-1190.9367622990524,1513.6463522201773,-662.4953475447784
-1197.6770864668365,1108.441720669138,-551.3391423166934
-1118.8020373929937,822.5234917122566,-439.3039417130213
-1054.7128734073308,529.1531766709326,-307.8421275359068
-947.8568114493737,308.9271055865153,-179.91057088812187
-931.4281635420864,46.45317208220953,-96.36195846695867
-942.6837911009367,-181.23314281635425,-40.8178124028083
-962.1379370121296,-381.9500033140777,-5.110501547419354
-988.9452565351064,-532.3142969311641,30.3167748415616
-1061.7999010875274,-693.8587591073405,72.9412184589029
-1175.8551595091087,-800.7097224842328,138.31226769590023
-1261.7254618039801,-892.0191910591283,235.4494144279647
-1281.6303222813092,-937.3761682123866,337.34455700978424
-1220.8144473393056,-999.8541805815443,326.6915817328038
-1123.921012782143,-986.0084738417299,229.9806763777641
-1033.9004655004512,-852.1717406045898,132.76297206487436
-956.6131145702151,-763.8887897498126,121.8489494373716
-981.1077177221581,-662.6493246929381,172.1607276694896
-1121.5450740059043,-563.4666272376398,322.78198977224645
-1105.9638102716017,-410.0635793058792,185.13661647963374
-1172.9999541127704,-124.16166580840554,81.127602188311
-1296.7833052061612,158.59136402339232,7.676423651297845
-1352.7759224607794,500.3359964921763,99.87569659363801
-1334.584185221253,933.4461819275697,90.83784982639332
-1343.2109843830463,1713.378166856164,-96.37959955744317
-1485.33903014791,2456.078273416508,-238.37599995921138
-1612.9973028506167,3097.0208990837855,-497.55013179832054
-1631.1380542794943,3438.2893240811086,-424.4058878414138
-1543.8605436107134,3528.085533795945,-258.56740069238737
-1534.8462522879884,3597.864714250025,-235.12004609117287
-1399.5299108258173,3789.030912696997,-371.10022280799257
-998.3419414376981,3944.384677744184,-385.2375683847186
-571.7038948060755,3810.4959389801825,-272.4304426078223
-201.15329903687805,3289.3087853650336,-253.34747339815334
52.46174789556067,2598.7467687742505,-239.37022326686485
166.66139813289965,1952.562801772267,-145.21370702533488
185.50065516766685,1542.952996181163,-72.90603824955517
272.4997833103048,1252.211509536896,-58.84823053744143
358.9533632789995,999.959211351481,-68.47608510551515
480.82372675684366,736.0362611085336,-53.98632560558398
650.0803026517722,518.3859931780986,-15.395165525434273
792.935406076489,304.9502123559014,38.4847017075148
857.7648840327737,188.41704353678372,43.77356181774613
872.1632769600222,127.24834678508974,138.38670697944764
888.5847868538187,154.41562613124768,162.0889906339066
926.1572504372034,158.73514400942219,245.05412143800385
951.3228268572858,159.06961092727897,304.2986136958085
969.1362493817971,190.4483182330358,367.25385325263983
1017.748160686881,256.33830105081756,422.70398148195363
1073.0575680788038,275.5732079762202,458.7896988268165
1137.0957462538177,220.6308984209695,428.5367582201874
1164.4955208965346,119.12222828386862,350.79767300760204
1108.0134398596872,10.769936726608986,299.29690567115176
1049.9202072063347,-94.1240892659573,200.66485497086165
963.0230506849945,-91.13550498896159,26.67016769233123
851.4977081878113,-25.560104622883458,-92.9601851804643
738.5457827086723,56.1013190029215,-145.94790269867897
656.0833719975732,269.7414509541995,-124.35541188887134
577.135923072609,576.948295289421,-20.6099942386034
617.190375918382,928.4648682271726,-48.668301611661484
869.541586576456,1594.1121585862657,-239.44058368556034
1099.10112015826,2779.3894959032905,-750.20113902301
983.1481698643269,4027.5935207231832,-1019.0982649528638
459.8675388639342,5002.166896952578,-1093.013414366782
-405.1862766592058,5793.323917953634,-1210.6886653444349
-1142.3064961021348,5983.103302350956,-1402.8949743286446
-1399.815431365451,5474.499446803955,-1393.2688532781328
-1561.236507879857,4336.598124741885,-1148.5165678391704
-1661.1584995895646,3406.7189101273116,-950.6477747242944
-1612.5384305547768,2382.5567344608,-781.6308321394157
-1529.7680655473582,1593.5717089933873,-675.6894556244997
-1407.453105800656,1063.2886867584753,-593.5757878582391
-1264.9783565233797,795.6886398515294,-539.5185919758532
-1176.1304828866128,574.9312966201508,-486.4229884823054
-1173.5913895162978,394.05913334319064,-375.885750995498
-1198.1257616005466,197.91977892552507,-265.7023550345939
-1188.5404291985542,-37.2420755303799,-162.72529355080482
-1128.265003849429,-215.71382684198988,-165.14508012420146
-1070.9569526800692,-285.79688272753697,-164.04990491146316
-1066.8271020175087,-343.68617213829395,-144.16951762324547
-1137.7483646301237,-462.26489168064535,-54.56552441455544
-1223.241371926193,-557.3411919462815,54.36402849087099
-1284.3835560563496,-632.9786420439192,194.99013424563944
-1238.8022413362362,-702.0185282435899,301.86964967649504
-1156.7048890293834,-768.0023249529656,350.4173188601613
-1084.1214889896144,-799.6196458525593,339.83776315051523
-1005.2974257264203,-827.8046019792694,286.16907914527394
-992.14818516007,-762.8395017666585,207.65398989461235
-1085.9161895244556,-692.9328567859566,154.9938052240062
-1127.3166677713593,-577.4969026120032,48.01966012858622
-1174.4071624866801,-465.3576909546074,-0.15942651160182122
-1227.4833913721811,-283.2129218438509,-13.342884675194894
-1216.3378931643326,-167.5485512381904,-48.88764256907304
-1189.1726532506004,110.34655055498057,-100.43837599995922
-1165.6376030550698,505.1837273686734,-58.246903886648354
-1267.3746896238777,1163.088312522625,-128.70858040207412
-1495.831909979453,1956.2541744632472,-327.1127245287637
-1704.282298236401,2655.779496566106,-595.5448598654995
-1852.406275333575,3087.1500461421588,-512.8774861955918
-1872.637444999057,3438.6156332692617,-168.999607409258
-1715.7031198217537,3435.2607669285644,25.669010314429496
-1424.8800558804487,3562.796673685714,-166.63590522757517
-1175.4880616724367,3956.376540408805,-497.82035659475974
-804.8742434980346,4166.091376769846,-516.5250110894139
-292.6279616382761,3756.5733456379094,-432.9021633279459
90.77085447120068,2953.689588187608,-318.4859253669704
203.6872938261282,2338.0767132507026,-267.62248066363134
226.46265544299024,1920.727261603096,-191.3058995681502
282.7968776289559,1653.4494450194513,-177.78650201648884
418.57413081939296,1393.8806830059195,-96.38429025202288
880.6534341492763,471.09563408503413,90.25824313093668
993.578847006878,366.25555108013447,147.24804087022582
1076.0861252313482,338.9944578423825,199.59619237966078
1080.858397108085,393.26375469706784,215.1825546950284
1040.1309315617466,441.3454135714031,363.54616510225213
998.8793318819373,396.6114830242744,516.1395583609083
1005.5441970499611,273.70610759025766,622.6183253200635
1035.307673874361,141.89758990073065,619.5846695864542
1038.540174269501,14.26797122360847,627.912691897845
956.3826587060821,-38.487047054804655,713.2017559513188
852.5765679411421,-75.2465928732034,837.3583231786595
893.2999546226287,-98.29034379732121,461.2829049675476
975.0750766061806,-156.7538354076061,54.54441628894679
744.2480357716448,-100.80608566635905,50.898115054580316
493.63646097291127,-60.287356028817186,35.233642477298574
479.63677708493736,121.6959920054249,38.33459948096445
600.2610473505224,402.9847093553864,15.64479205437127
579.7565937399622,866.2519820733891,-115.73779017299486
664.4929716060021,1460.3253914435613,-238.1353469329486
786.330704165031,2398.4337158968665,-361.1386151234112
681.6935446865139,3399.325967583222,-585.8616347070611
381.19235416783516,4451.102058297176,-915.7296324432912
-161.146772853115,5365.960853094584,-1193.81236201965
-892.2068188423164,5825.608133256515,-1488.8876425690733
-1416.03911631393,5276.460361081511,-1487.0317590614534
-1558.340513835,4018.650609535367,-1221.9667266599706
-1410.6244232230172,3064.9508241856292,-875.0990399371856
-1234.4888417553395,2283.1955866682306,-744.2357991770891
-1151.453350532547,1725.9920564107013,-678.3182840215569
-1160.977499961761,1350.991419088068,-653.6482896809819
-1167.1977688609263,1057.9147823160815,-550.7130365619248
-1077.6972768478533,833.4599480964449,-477.9715805091443
-996.8123671182311,587.6563352419023,-205.13223169991792
-1043.332840470497,283.8512641931751,-39.96971442847456
-1056.1404761055,-24.33063278489597,98.23966390153622
-868.5024957554313,-321.58178378957143,-94.17782831038123
-670.8539613425585,-512.0504963468667,-19.931577042109183
-768.0951191283467,-711.3560696058288,104.87169420750207
-1010.5030769936727,-968.1389669255046,164.90136794929973
-1100.02906191207,-1133.7408799131204,171.96800130523678
-1132.741558024402,-1202.4901469920924,242.3528931898253
-1129.7435923582468,-1124.5022510235403,312.77857372293295
-1076.9528840123794,-934.9818745443145,352.17530961133525
-1009.0244884848547,-726.3367204906875,379.9615566987708
-965.2766235156756,-552.5373088669425,383.9557851050053
-923.4917122564791,-386.9547704873734,333.0026053749242
-909.2829865448448,-151.8000540449593,250.00484365201166
-873.0198385789237,241.24650109874423,104.01105372374869
-853.6707234376674,653.3454339657275,-89.39535927151475
-793.0771466300929,941.2500701054898,-289.6147002289263
-685.611294376775,1086.0691469564022,-441.55343567885063
-700.3359964921764,1120.1174713077353,-540.0049966094437
-760.5747120576344,1205.9061963055683,-517.6487383561155
-828.6071186388829,1511.8720460095956,-543.2476941667135
-945.8744831313446,2043.4195163486006,-480.07831420515674
-993.1097775489083,2695.3138941432603,-310.30270275782254
-1223.9245817888882,2995.681501838039,191.50270479725495
-1760.774576435378,2476.4114147032883,923.0420174065558
-1987.110787067959,1202.13324631755,1434.149276256418
-1866.7536824501742,1044.9643864112618,1271.6473005562552
-1633.3916271101755,1759.918014816477,523.1317524332978
-1143.9074505565102,2352.6382607720275,-256.4606669963749
-748.8897839731204,2777.7681471246556,-393.26375469706784
-433.1999204621354,3016.6876558253844,-224.50683974649857
-222.7131589278704,3103.638857306012,162.96492686085463
-140.87277510668784,2780.8272957635895,479.2503046402187
-44.884236716921684,2440.150306169793,540.7065613639725
100.44490218372228,2082.4542529813957,473.44709967216124
231.78965293958697,1573.6260598675392,367.2416166580841
368.05127133118856,1080.4709049471535,288.52870246210483
554.2443138074674,583.0390602295382,206.654668005894
765.2756037994627,97.44010441894022,172.2076346152866
909.6133745978497,-201.58259956254176,175.37793232143497
980.2613532653863,-387.1668714596728,251.6302712954985
1015.2365996543164,-533.1168135907777,401.7824639402855
1138.4111801685592,-534.1028791687273,399.7063217306624
1233.866814865423,-383.4581635930721,455.5724941748712
1353.1838089459707,-152.7014831772318,405.56153222558163
1429.9174539725595,51.300699015464,355.00196295371006
1429.9684397832084,194.20393304543347,327.0484824073461
1346.9431457225455,321.7439186674349,239.03269720036917
1197.1774255224773,377.1012527213677,240.5276011685948
1008.9286351608348,421.1835846084035,245.40796296390715
843.2288294167734,461.082020873591,234.94261547011467
807.073771369428,522.7707728939037,179.2477553496862
780.0788240632633,591.4914879189123,53.0240194153967
777.6192685575605,861.2074459677873,-73.51062799222977
718.9009498656525,1260.1958874845132,-71.81157683816595
667.7866549739208,1773.9595070691828,-207.74780378620633
665.2710150765042,2475.1979524098447,-535.8945205549296
717.7568282746912,3293.14291832583,-745.8724436989187
570.9676597003055,3857.025589778365,-985.4506890732312
-232.25668296513084,4550.198079874372,-1188.2039228482715
-1493.2520279606188,5570.648488525644,-1108.4927064797869
-2151.4278576272222,6041.2271264906985,-1414.285204427608
-1851.896417227086,5111.664023902149,-1693.1571943528118
-1855.2104949192642,2998.495918585858,-909.0066434511277
-2164.3374648835234,1892.2975735852713,-709.7500165703885
-1829.07516838064,1575.90002702248,-750.7558646428699
-1399.2341931240537,1503.6123446844745,-669.5058965090017
-1245.338622261425,1371.0594341594735,-647.130263647627
-1171.6539287116398,1103.1391963616527,-688.293148016907
-1125.858473586801,747.3765251130611,-627.538456047682
-1083.6626166937742,449.63570638291367,-570.9564428219627
-1014.0843203336512,253.19349624999364,-412.26718604212454
-949.5077319981849,126.0073521538956,-300.9814768549913
-910.698352648458,9.921410471465792,-268.61160539021995
-948.4931143662719,-136.34829426970478,-217.66454395741667
-1006.4650007902803,-270.1136473719364,-84.64419552038669
-1084.0603060168357,-454.02558467978366,48.25113570893221
-1157.133169838834,-646.5194536360532,90.97673517460092
-1232.4494093293838,-842.4426282165674,180.77529023672713
-1260.715942753132,-980.5897018859654,282.85908031794753
-1219.1930985606707,-1027.4762533586904,267.9406321220805
-1149.1487918912167,-1008.5340049864125,284.62420908261237
-1054.5395216511247,-977.8191329353043,340.8819525526046
-1075.4437040171722,-900.8427954500264,277.5157673619432
-1127.836723039978,-800.6220268899166,190.0506289099744
-1236.548668505555,-703.447150657972,144.92410762084913
-1293.2652842713876,-509.63274920589606,135.57127051541556
-1364.6862078283614,-369.58798366414635,157.57674639147925
-1388.5781586984344,-52.926636517057304,69.80885419587729
-1270.637781505407,472.8577037010601,-303.03722474035476
-1172.2555612772967,1635.0639616994595,-482.09225372578817
-1327.8744525398583,2594.6271152738195,-613.2481530390094
-1487.929109328874,3314.638536095405,-712.2656564678051
-1602.5656059918526,3536.8958818760743,-620.5411633942274
-1813.0962153232758,3382.541438717605,-328.8278871989925
-2054.4120571245026,3371.334757536978,-65.5305328527071
-1823.7930383974142,3660.036811755289,-27.728429178159725
-1233.4283368938427,4038.004823257688,-75.10515823446336
-695.3638602376959,4045.071456613625,-110.24050006883087
-293.45903035185313,3572.9836386533634,-196.8184854155089
-12.753590675714948,2912.146349670887,-296.34890609943255
127.85507793181159,2295.5137585210036,-335.33367663779177
183.56829294407368,1746.1518459412746,-281.62522370024425
280.6483355682114,1386.4367546511808,-184.76645949432276
402.0210775341223,1057.7312333977454,-60.17661484808778
572.2626992907874,728.3323051194853,29.826291343119212
686.8900185078494,472.309096378478,55.95478578311657
791.6729974048224,305.6293433537447,113.03146334375145
860.9555760631818,196.94085136106625,134.05903137156932
893.0113749343559,158.39149964564865,177.83952725956368
928.7014423885834,146.79120800681173,209.81068968506065
1012.2692254745506,173.86365374516274,281.6140068219015
1106.086176217159,150.31330780643748,326.26941922063094
1154.8897941702826,127.42781683857385,405.5707096714985
1232.9184787873537,88.45324346234445,442.1927977443878
1294.111648728159,22.20890926055279,443.33284047049716
1317.6263045994301,-25.210749848317217,353.57843912039283
1255.7601219580592,-60.54065353612091,242.88110618814787
1123.4621404863028,-9.645985122340454,193.63289196616583
949.370070309433,49.45032197539425,159.4285510342472
828.3583078829163,61.56842550718136,110.47911366266769
768.0451530339108,150.20827703650076,19.010773301790113
764.7626865443348,250.79104485221768,14.697679635757371
698.131370039718,459.5585648514019,-61.572402400411974
673.9936675623175,837.9477191497608,-169.17499859789024
647.864459320971,1281.4875620114924,-347.6712230986117
724.9233938195001,2144.9628568369426,-635.9266416156383
788.4333589961915,3473.4491391045876,-855.311446824349
521.2830069391689,4715.850978672635,-1040.1105372374868
-103.97638337250744,5928.201781444225,-1438.1771552976809
-977.8374878271378,6304.915542004661,-1613.445977984327
-1561.5118312573613,5503.81628792707,-1285.9029332136868
-1784.1362748747026,4597.217194454784,-1188.0611625784545
-1892.868614664539,3898.83395451046,-1069.5905329546788
-1757.3687242840317,3051.205049634687,-986.2113973681127
-1624.8769967318096,2246.2818597584296,-887.320338749726
-1587.6165663095962,1639.3467697939664,-798.3735526403003
-1545.4614980650886,1179.3935747681421,-709.8489290430474
-1471.2567492466849,854.6802424885157,-613.451076565392
-1377.5958150846623,556.89557596121,-516.8523399937799
-1289.6758832017051,286.69627242738346,-369.4125924755141
-1206.4058572499275,78.11780781408535,-257.5721576685209
-1143.9278448807697,-173.17534530140264,-181.2209062217985
-1072.8944134847272,-362.52644888927415,-93.1767729041008
-1056.5789540770804,-543.9278448807697,-29.5264947765037
-1148.1596671646282,-685.8774403083622,24.525296609953454
-1314.0878893403967,-768.6202729780302,143.98188984005753
-1400.4476554174976,-910.2578352444515,237.35730346244642
-1336.664406295728,-1053.0915246286959,329.06140221176446
-1248.1632361713737,-1188.9789071701348,354.39217265834924
-1157.1025783524447,-1275.0021668969528,332.4988655657131
-1105.525332300021,-1264.4277097683716,262.59324030122417
-1102.2622404184917,-1161.3344006363031,113.15892787037369
-1204.254256040544,-1010.400085656162,28.704501537222193
-1299.8628481693545,-827.9626579922809,10.958482254388606
-1343.9247857321309,-498.79826444300556,5.263306021934096
-1434.8834719297622,-281.43555648463035,3.1675240780490794
-1353.7752443494976,29.80579504723836,-165.42652179898334
-1321.511423370876,331.1569190294341,-185.58223246470507
-1341.9567334410835,628.3766627747499,-281.08273467493996
-1380.9608785874893,1619.1971774255226,-277.15988640361394
-1524.567512861171,2558.478175523752,-502.25816155363964
-1790.3871352602573,3363.829646209461,-669.8668760483957
-2108.263270331867,3697.0423131242583,-463.8230180540756
-2162.410201240995,3693.6772496214307,-25.064828458240076
-1850.9888697975357,3441.0527550182787,121.73882008636998
-1555.5668857356998,3590.920446839645,-164.7637062605477
-1403.4252267593931,4036.2203198849766,-423.0119357782729
-1030.3518530792883,4150.000254929054,-351.0893118445137
-494.6857489560656,3628.3848205044537,-235.34132450938907
-136.86223124104563,2844.376010156374,-195.9394900399219
-40.067199298435256,2186.2307719761593,-156.9475814880719
-53.25416936466581,1722.484232638057,-108.48454875008288
43.72420755303799,1419.6693060321315,-137.40777941498882
154.71644241407617,1175.3249070783602,-107.44851707769728
346.05905176589357,868.4086818638374,-79.99928619865092
546.0090856714577,573.2487648687371,-28.913033502776184
729.7527698041636,301.18134123273495,-5.61980900715331
879.3879663289707,110.62391336491056,16.887520203127472
933.2840470497063,5.9232663549734115,37.67117211280101
989.7131028434787,29.30052566370779,105.15619503092292
1007.9619441909317,64.64980395955806,179.87793996930657
1032.0547791549614,131.36392142066865,305.60181101599426
1015.1325886005926,174.5815339590992,364.0713189519357
1056.1710675918894,201.9466382505749,431.3124257519133
1128.9788051985133,143.3506855042242,432.6013470451174
1177.9047890971942,53.84611462629951,417.93782790249475
1188.6220064955924,30.373471063003173,398.55404240999735
1140.358838135347,-4.532577383714113,346.9288696955638
1065.6748226968436,-39.09357425828393,310.60453875686403
945.9275083744195,-46.964457791396654,191.09889717691567
854.7618197855538,-58.50183293989283,119.12936629735947
761.0519392453082,-38.786129820071075,78.41291368612116
703.0015346729007,81.31696348906101,45.74130819392963
674.3230358991093,348.56551421739334,52.25933422728455
706.9121463496709,889.4352301754423,-7.9464445044944
826.9612966711364,1663.9117333646047,-259.93687956641674
907.7421953470351,2715.5552609708725,-701.831920176615
715.919299658905,4206.951405423872,-1098.275150025748
186.62030356951664,5286.290425374619,-1145.1617014984731
-679.2237920186814,6023.178149520989,-1274.4311258176851
-1624.0714209235573,6181.886780908874,-1230.2570194714813
-1910.662662581004,6109.364563841883,-1371.6610667251305
-1842.0357614475893,4629.532001244054,-1086.9970887102122
-1777.2429932749717,3240.5561532225584,-598.6111465179241
-1779.4353831328742,2444.4535085885605,-497.8427903514453
-1738.4529885332915,1890.5232673746898,-534.6055992617255
-1597.1203214145505,1460.4375602269888,-480.0181509485911
-1415.7943844228153,1037.1533602198508,-495.497443061596
-1274.4107314934256,692.0406050996008,-456.8930266706776
-1171.235845064319,335.72524766357526,-407.05031789652946
-1101.5688333936666,49.485196269878095,-338.32246485803006
-1004.5153033910664,-121.00360469681289,-281.34888060652725
-881.775121983552,-222.50819596906183,-275.24383963942836
-788.3364859559586,-280.9114223511597,-234.40012644481044
-802.549290532445,-322.9716569878603,-191.30080098708532
-890.5773123339776,-391.6515833643498,-160.99075627252938
-1079.70611778742,-563.0587407524487,-25.883660577261352
-1206.2325054937212,-762.7375301453607,31.76395609101987
-1212.7382949325204,-959.3326977102274,106.89787032268922
-1138.9516297614375,-1071.7523313261922,147.6283950176666
-1051.103078013389,-1146.0080659552448,141.34490371329662
-986.5509628670342,-1204.682536849995,126.81190824593517
-1005.6196560497215,-1162.996538063457,12.57157133169839
-1036.6638964376216,-1024.7842025564287,-133.57058730555286
-1118.322770772894,-800.3518020934774,-202.2698882900889
-1204.8864800925903,-563.5726777237895,-192.5907419965024
-1300.393100600103,-264.25741716080415,-120.4631551039346
-1434.5775570658689,-37.06046407284853,72.99098061009622
-1340.1416385819828,53.407636654719006,-110.35674771711034
-1091.3104882911086,475.86994539419686,-241.49225270607192
-1008.4993346351712,906.2595279733652,-496.8036995304207
-1330.10763104628,1974.1705883252694,-772.097505264285
-1704.6391989109432,3310.223164893211,-962.7477273074905
-1964.9727480842084,4216.4857520152145,-659.6595167564868
-2077.17212299817,4202.903132058349,-115.77246052423612
-2068.9226188351786,3478.935212330409,271.4066475299924
-1720.49578602275,3158.989053346454,277.7054345775571
-1346.963540046805,3493.8944491747948,-16.100911116436297
-1036.3069957630792,3818.378345306502,-232.32092508654847
-649.803959558055,3548.224929002259,-249.16765664115678
-217.37698398535693,2903.0300867268643,-197.34261954897954
-13.693157194352812,2197.4578474810464,-176.21307989986389
25.18658257406964,1736.6786823227096,-181.92553012496626
104.66979039733243,1453.778813356243,-164.08253583027846
207.79063186715138,1224.8933121912173,-142.14232179184535
398.0064548036282,976.6199466688422,-48.18923893480445
573.7443469482444,681.3651960659349,-28.862353606991178
749.5913487276491,401.58463899496775,-9.585985020368833
896.244895045709,180.38167977851765,44.37702987258647
977.4703899904658,67.83753881294837,77.37035582997252
991.8677632015012,6.669606848414088,171.98329704843144
995.84975501318,-7.7791702569175,289.82986034986465
1026.3647626865445,-7.098162981242321,392.32561578112814
1051.9698367944202,35.82650548352394,455.3583537701458
1141.419342996844,54.656789015616965,476.2574375551285
1185.318125965544,49.84954087277511,410.21245787297397
1213.961954388094,29.754809236589463,351.83982297726544
1176.72191829014,-24.686819658089156,288.67146273192174
1057.51709299302,-71.03965166494166,192.85178934702475
931.9400610810013,-62.931480169068955,124.22488821361016
825.4154068922619,-47.30310554572663,48.00885113672865
748.2075938266381,30.49553109369663,26.966803138686508
708.7160243304289,165.71918035210803,-29.025610172688946
701.3587718537932,428.4755752474087,-73.19308836350844
762.4764827948383,919.3231123778254,-77.85808609463987
889.7513422014654,1753.534591323235,-133.71028842673087
901.2404847730878,2957.3503693921984,-494.73979391535346
599.1852467458308,4020.3229441246503,-871.7645679207477
137.74326604905858,5196.157709309499,-1314.353015555771
-646.48070441996,6115.105566120949,-1348.819423554425
-1265.88590395293,5751.403384438112,-1031.1268374011513
-1610.6417583986379,5233.2345908133775,-869.7118791840231
-1753.8099147007392,4763.043445009254,-791.778028174759
-1675.730244273019,3738.300031101345,-661.5633269261166
-1393.309641926652,2804.688655147273,-544.2939230012288
-1399.6522767713745,1966.0638444320948,-443.44398953771173
-1442.5925264998752,1339.6317804754938,-441.9735587585975
-1383.877266956606,863.4008555419027,-427.7138472363142
-1228.3807416396019,525.5678544661022,-428.1696603835153
-1074.2098473994688,238.60543610713142,-366.02305578357544
-1023.8664579647484,22.014245435495305,-313.51786797734195
-1025.3450464735665,-162.7314118480827,-206.95242514008356
-1061.4735918993745,-266.1020837900813,-116.87885261531717
-1061.9426613573444,-327.01483177231785,-6.7908816976235515
-1009.8606557794966,-373.2446860038852,60.86380160401361
-1066.9290736388064,-461.43688211570725,99.55275246898789
-1212.4017885822377,-575.9234804953782,148.7796546221187
-1303.7071782922815,-756.4234473546013,218.66488556234802
-1304.4413739656254,-996.0445208098588,246.93447813473514
-1185.3895061004525,-1132.2316999179131,264.8753651858688
-1075.1377891532788,-1210.7090596686942,239.31923745621594
-995.1665451504847,-1192.2725905380535,209.05813911988295
-1033.1254811785882,-1057.6496561007073,86.37200267165649
-1100.0494562363297,-891.4440711150088,10.240907955316038
-1221.7525862552452,-725.021286575946,-90.25895693228576
-1304.6147257218317,-497.0310962459148,-194.30896381537022
-1370.070309432885,-257.07453615658767,-243.19517878174508
-1418.3742664416495,-20.661387935737487,-240.79170766775607
-1491.7734394518009,333.2830273334931,-97.87389169594103
-1442.327400284501,847.3637786603988,-110.6412485405312
-1465.8318589936423,1594.6628053412737,-498.1272911748661
-1761.9676444045624,2628.2267644914423,-698.3567273227861
-2097.9845309050493,3592.3582466999437,-479.0137304788078
-2194.8677683000824,3790.0506289099753,-92.59471888973299
-1944.6701982838176,3426.022138038984,88.98900236064304
-1733.44618192757,3426.0731238496332,-151.17394829019085
-1644.312787751169,3847.338285755075,-555.4955056007914
-1281.9056456588132,4084.024615949382,-594.0366995865052
-704.2415095878818,3860.339667470543,-439.4181499288748
-310.36082658196227,3413.3878541601875,-318.19632596248465
-117.86797734190577,2882.7785227371223,-211.48302427434447
-20.201699866927036,2271.1935268414804,-156.93636460972914
61.583925193618626,1825.6693162292936,-150.28373603626113
183.59276613318517,1465.2302264279851,-111.91895295539253
435.993942885695,1034.1146059051766,-75.28656574875212
966.3728184446269,114.38564647458614,80.97168757934668
990.4472985168229,153.0655218652649,100.82495041629916
1022.826347427511,296.1072333569568,116.52603080562682
1024.6006536380926,431.7172530884655,139.64299735383645
1052.163582874886,521.4777727358477,249.64182468019155
1065.9705403986072,538.3979238577905,422.47556505024653
1078.3193037377698,481.57321817338243,568.0624882095314
1094.5837773347678,388.98094660256055,611.7899588544509
1134.8421734231365,279.9875594622017,573.5138910841114
1132.0685453238366,175.01899221446675,514.9577072700669
1083.071181290247,93.58506727577716,451.7047105790459
1007.209393625754,66.45378391193731,380.0166213742716
925.6137416956863,42.74201689669765,253.28629042537466
774.9272177552988,77.56257233611886,121.39925458744833
652.769294305395,139.59812984046542,29.09372721571587
597.7005399397349,251.72816405194436,-27.054090846517415
526.0899491671469,422.6203647524895,-16.929430539480865
496.6395252201313,1083.5912365588658,-113.79115192242
601.9802888856032,1616.0564514895507,-184.6532709946822
731.5056619742726,2603.315097408392,-429.36986636619037
630.589446956912,3811.6890069493666,-811.7216378681815
329.57533918310537,5093.176568960859,-981.4625789642744
-236.08979620971485,5894.306414524839,-1020.1139023009897
-962.6926626319896,5825.985428255318,-1077.86043144193
-1402.7726083830873,5066.388624045929,-1172.1535896559988
-1658.4358573009133,4174.9221191742345,-1141.5824975909206
-1706.8009972824564,3337.7147139950957,-919.7024468090531
-1533.897916209919,2702.8903856056863,-801.1563581855171
-1444.8766908169457,2080.537186500997,-660.3621012272285
-1427.7454584389166,1562.358195714133,-615.1866335598803
-1347.799707341447,1171.4397883069144,-561.6505126623262
-1215.7362605986755,887.7751321807142,-582.262036475249
-1084.8148960144395,581.6471475988234,-520.3999326987299
-1009.0061335930212,388.637302238787,-404.7987844982742
-990.534994111139,242.5323632433094,-286.2904253746183
-1000.6740324167785,96.2263362106326,-215.30594035679871
-956.2378590038394,-38.75380481611968,-127.84284133725586
-919.991026497326,-190.2392764093753,-162.11040467437914
-900.0107070202364,-379.44252114636504,-102.30404878322365
-1030.8311196993877,-563.7531674934867,-60.470904947153215
-1206.5384203576148,-708.7466158168182,11.954235136361552
-1358.3537701457685,-842.140792217526,104.32104745249397
-1367.1029352531193,-945.6175146456742,206.57920900613362
-1290.8893454951487,-1003.3589452055494,306.031111541658
-1166.7286994029564,-980.927227952461,327.4380140007036
-1082.285999806254,-950.7691209536387,312.90297910091624
-1091.4634457230554,-908.5977372497234,261.6030958584226
-1148.9346514864915,-827.9646974247067,142.7317177629466
-1229.624795419435,-685.3889962423459,7.6048701646331835
-1270.04634610188,-488.6082403267172,-87.85528187505419
-1284.1286270031053,-265.1588462930767,-206.55881468187408
-1322.1028587744033,14.332213345026082,-137.4271540230354
-1303.9723045076555,478.3233826026218,-154.4197049960996
-1230.1856393365729,959.6426914389727,-347.24396200537393
-1430.3457347820104,1716.1823864418532,-721.7092483161937
-1799.0241315841802,2678.1010844681928,-777.5723616117635
-2058.7050623811397,3271.7084835290343,-391.00202413668285
-2015.7342211662499,3235.8960501292495,-33.09743898273111
-1797.7188948315686,3190.314735409136,-178.8133562429576
-1636.0224949396586,3672.6405041476964,-613.6509409431355
-1451.1785370131493,4312.257498738102,-746.4771354132146
-969.6420286234343,4390.602295381196,-649.2624902489638
-422.87427408952095,3783.8099656865497,-529.1358414953119
-82.13824292699343,3077.7380654963727,-443.1574492818649
77.04730973370113,2465.6432114942413,-391.6128341482566
127.09640906935603,2071.3291490978063,-311.0409772960185
161.92073745876525,1742.8377682490966,-238.7675709849949
293.21735760937736,1432.9460111251042,-165.11244920538616
461.93042476278856,1099.294866238726,-118.28912013786565
666.0337628038118,788.7362147114459,-55.314505972987725
862.511663004186,528.4587499298946,-0.47331453656447414
990.1964483284303,407.88852462359733,41.09221803572066
1040.8345357487012,311.09094339045447,77.49894204442904
1043.0779114172528,261.447079277837,152.26810378671615
1047.8501832939894,301.2639382459862,281.7169981594123
1028.4755752474089,376.75658864138114,485.2523542698068
1038.764511836356,459.4402777706964,653.8869032748187
1076.6673634727458,471.565723259217,744.6793757297345
1132.7823466729212,405.0424966731759,710.423029270954
1118.7714459066042,269.35089964462895,667.500114718074
1099.7843300209552,168.1644598308291,585.1396756282728
1060.0867778497245,74.4884338688543,459.27406402798107
992.3500889702397,23.234539827565992,293.5977117568181
856.3158672941321,-31.078808767520005,158.3058434837585
726.5875706790802,-7.568537675964779,77.79139665431111
656.0792931327212,42.88426730840808,33.39417640070769
586.9598690684383,174.7854772016948,12.290741486644269
559.8711078706797,410.54080649355296,-39.930353382653614
673.1442439569068,1561.8993234182929,-120.6099942386034
692.9012455833542,2489.7289084447802,-186.23790998964992
540.084534474056,3641.1006816802887,-498.53211851141833
233.64553644720678,4828.550014530957,-805.3993973477183
-218.45176487383563,5546.175299414174,-995.1247367857526
-725.6280177226679,5599.679809109125,-1081.3988467009633
-1018.580249116671,5040.94670453213,-1083.8971514227592
-1259.8491839721007,4281.411083295519,-998.6080873692852
-1376.341564142699,3594.662805341274,-884.2224408946992
-1249.9783310304745,2936.95604513264,-770.2212274324056
-1126.8272039891299,2430.055115661312,-668.5504224174413
-1163.832705358099,1846.5836957574709,-616.1166147461163
-1193.312701075291,1375.0159330658278,-591.4201077840038
-1123.3907603513944,969.1199339223895,-490.88730606272276
-1073.1595397001017,698.4362651873984,-430.35287279550107
-1044.2199935757878,474.7309223843005,-327.12394140710643
-1025.8243130936662,278.401900751021,-200.5985734170181
-1034.0228314460087,73.65807895662637,-172.558416992551
-1021.8780113494416,-134.82891711236763,-112.80406662825737
-955.3323510067149,-297.27378870460353,-48.46507217041498
-984.8745494128984,-520.7038081301973,34.26328052902877
-1072.955596457506,-674.3577062503506,80.55768279687763
-1184.7266905620168,-812.5292531088598,106.82139160671586
-1217.6125384305549,-923.8047651338634,181.27291174866036
-1170.2773118241194,-1020.4402114891426,233.32738498875764
-1086.313878847517,-1079.2268511673203,223.00989634584698
-1048.4926045081654,-1083.5606450724763,203.96771578469713
-1050.6442057175489,-1060.9331423064962,137.1406137671886
-1056.273039213187,-1003.4170690296891,74.06841276072869
-1093.3601178791944,-880.1711083805378,-21.093747610040126
-1152.8503617443266,-694.7775234152336,-108.95157877562674
-1180.4540796296392,-435.9806865749262,-180.88134072287684
-1235.9674302641577,-173.34665762518293,-280.71461712205496
-1301.0661133006686,39.665838997007135,-313.8054279494017
-1385.0397434394008,257.7852783570333,-225.53267425675438
-1375.699142928523,657.9056048701648,-38.36090815925929
-1293.877113999174,1127.663371283772,-219.25224210102328
-1309.7846869216298,1941.519275185716,-512.6582472098015
-1507.4056889967524,2936.272835269945,-640.6377305195965
-1996.0231067693865,3785.1253996012915,-466.3631311406036
-2172.8215037754994,3741.267405281111,-335.4264708131727
-2021.4752234453154,3504.7952154915292,-253.869568099198
-1824.1499390719564,3668.541244971525,-373.12945807181865
-1545.3595264437909,3986.274619773317,-507.3863143887057
-1095.0120581442186,3846.502118460433,-598.2848373297712
-607.9874370962561,3390.2912819362373,-565.9027292704442
-298.5841240382802,2967.2416166580847,-442.1030627176457
-123.12359470359401,2502.995416375623,-284.8475269332545
-123.91285505243893,2048.0898166040392,-102.79249284924006
-53.80593780750818,1630.6587876593946,5.630526224551708
-30.94267665308745,1297.2931633126502,-43.922440384840904
191.79944221523152,1032.7685805040458,-8.29663544635528
470.2451907634106,740.2334130411508,-26.686687094981473
651.5527728633122,514.8934651486492,27.80949661709147
832.3698714647714,297.1544819076851,66.57400845344742
970.6882574579496,180.12471129284722,80.81465128254808
1041.5789285841752,203.14276536839802,121.04541306154498
1046.0248912727589,293.08173535305133,230.6975368754876
1063.196912299307,414.12001040110545,367.9085110613717
1080.0222298134431,460.6986075775112,399.40040686676906
1100.0902448848487,418.26821595549967,431.24104561700483
1161.059077258799,321.0739651155084,432.482040248199
1269.1082071859403,64.39609856576915,380.0217199553365
1250.6921323795589,-13.475039896396837,309.3655835580958
1025.130906068841,-98.22477604482674,153.21236099993374
887.1714601826312,-46.757455400162144,162.7456878750644
739.7572055696901,8.193327996818487,121.10659603432367
701.9094186088013,158.28137029464702,-1.6301795210392949
675.121473693871,378.6644776758628,-42.02107753412226
650.591180474474,862.2241030321262,-71.49220172026126
655.7142347284752,1449.5265967481253,-155.81365705924046
851.1734384320845,3362.2490860793446,-689.1619462303642
812.4068871633026,4427.37326202118,-1026.9256066036824
390.9051510964499,5446.926320405032,-1174.0400646500082
-760.2331071262868,6282.532771129795,-1331.4638536095406
-1821.600648539512,6286.428087063371,-1394.472118409447
-2197.9677055875354,5275.858728515855,-1377.0757598160433
-2128.4740456730897,3977.749792232822,-1104.7809394645471
-1919.9318829569731,3111.1949544441786,-910.3567477171105
-1849.7346188555728,2241.9378686911436,-706.21669989242
-1858.0555031534725,1573.7382286509667,-586.3490590568646
-1771.31844207757,973.9829605420813,-516.3078115360496
-1544.3704017172022,643.8641126174587,-456.85019858973254
-1356.0900001529576,429.8654484456976,-425.8355299720089
-1262.2659113968584,251.84033283537195,-349.2619803908573
-1245.10408753244,132.44074174157333,-274.03445621083654
-1224.2508909770413,28.4177573381328,-206.65262857346804
-1133.1188530232037,-41.15115763283079,-118.71026293382553
-1038.4483998103328,-99.24622577536674,-42.528896208185266
-1019.1808619661149,-195.94254918856086,-22.290894444076216
-1125.8482764246712,-368.585602626789,47.3368581523762
-1241.1475886260855,-556.849688731626,93.34033538466245
-1265.0293423340286,-761.5424227437505,113.2965895591257
-1167.9727531827893,-932.0318355401693,170.27017381062853
-1121.7082285999807,-1063.6863760815368,198.87933188193728
-1081.0113545400318,-1091.4736428851852,156.41223047625846
-1071.2220788954435,-1072.6904702421318,101.55058047345425
-1072.4763298374064,-980.324575670591,46.275435546287476
-1073.7611722657584,-911.1327517551866,-4.997282456292414
-1091.2798968047193,-784.0975256586094,-92.02989807936453
-1111.7456011991865,-606.6036821952451,-163.57879602106735
-1127.8469202021079,-413.56120591639353,-223.34028439885182
-1214.3494465490255,-226.97353326569217,-201.71720210265485
-1330.0974338841502,-71.63924479817267,-239.29680369953041
-1442.2662173117224,88.45263163261664,-174.7987335124635
-1456.6646102389707,457.6986024789301,0.3477762538685484
-1438.5748446207422,1039.4069330505322,-264.2931072282584
-1514.5131110012085,2163.10360826582,-575.3422422539808
-1794.2926483559627,3240.260435520795,-645.9606491513413
-1872.6680364854462,3894.1840485792804,-708.2102450887919
-1708.769049573504,3946.5260817914377,-768.725303747967
-1591.1957702171487,3987.6104480123186,-829.8970596483
-1508.2316591292645,4349.517929160315,-955.4628746819761
-1223.5880754386055,4538.420357614476,-783.0778094456314
-805.8541907787064,4104.051842372268,-532.0287763915303
-352.65865509628674,3401.161456766582,-424.7536110700392
-65.10928808512591,2784.5186684545693,-335.9485655142174
64.17420831782515,2246.2716625963,-273.32677315902987
92.57554822492901,1810.026869522212,-141.9179842249902
158.63827096918928,1384.8459973589352,-37.453462701330224
300.02294361479204,1059.046667312487,-2.8395833439553777
472.1540995141053,740.7126796612504,28.284990287203073
656.7166157658324,449.5408727751067,79.12732686493351
809.196820524848,193.0485945761295,86.20120020598269
908.7353989384756,60.80669749608685,95.98762064517446
948.3615709747978,22.163939775560465,135.95774296013423
989.8680997078515,38.059582018324306,218.943268088491
1017.9500644970506,143.3965727338082,340.6718910127312
1043.4654035781844,218.19071752331328,505.6354616510226
1098.2139670529693,261.45421729132784,631.8977428581626
1177.6600572060797,269.1775478884227,699.7802511561033
1227.3202367781048,245.50993458520497,692.7544064486854
1204.4276077967504,213.85386446951816,594.4027777069642
1131.079420597248,151.6012093834286,491.4736428851851
1011.7981165841547,132.26025197187624,387.71241963361604
903.5266885225842,151.31364941136886,260.43857994320183
798.4286173158011,170.1651430406918,113.58924811225039
733.3075005226046,277.9052989553008,-9.412663855648974
658.587795016647,451.87908205146516,-89.61123319380216
570.3344159320462,738.4387125063096,-138.99547755859547
704.0028959940449,2670.0351292235373,-347.58964580157345
587.8194898359787,3835.09149403721,-828.1390688971261
196.2484640524542,5108.064425670337,-1164.0468457628244
-765.998582594464,6417.247480026309,-1414.4279646974248
-1734.8839817878686,6381.812341625327,-1468.065037500064
-1969.6838369881664,5154.614470792779,-1322.2354218820903
-1889.370988054025,3853.375005735904,-959.4978917367297
-1679.6357573687244,3137.7279703058643,-761.6362366353445
-1594.6322138548844,2530.8132746656606,-628.8029041517747
-1638.8369116874776,1924.3676484834273,-556.7752494480786
-1625.1217286229244,1448.8025982369109,-507.8706795898702
-1476.1411899068491,1049.5429122075327,-461.12077008968413
-1325.4679222772304,754.9723911835337,-387.2270347162385
-1256.7390495225181,496.52735643670377,-240.11461610233874
-1297.9763731753453,273.15342140282365,-161.48633835203665
-1323.6936160666487,65.13427113234388,-82.67767280365875
-1334.0437356283746,-189.35926131757535,4.367434343022337
-1233.7750404062551,-371.6212977928243,45.73049920207207
-1111.490672145942,-558.2038718624607,56.0408498314919
-1107.0854981058772,-693.2622251227484,99.73324223868498
-1176.4771863990254,-831.7621206018366,126.63345790866403
-1179.6179123349973,-924.2391642405919,166.14440201291984
-1149.6586499977059,-1048.27846410344,167.01218051016403
-1112.5715713316986,-1118.455333880581,140.33130579759654
-1078.1663463058233,-1138.095068142536,136.9886760514549
-1029.2403624071424,-1092.4321761253846,94.3967613813076
-985.0193491151413,-992.888499130692,16.230924933590984
-951.2963142357482,-838.9205284169417,-42.652689756440786
-986.9629282170774,-668.976663794466,-106.55422595891565
-1041.8950406101983,-479.5735546797327,-174.73449139104588
-1110.7666736347276,-312.8540327226933,-195.95172663447764
-1182.7076524603203,-149.7677596324943,-193.65532572285136
-1271.3923715030107,-2.3459387252527626,-226.87767994167226
-1369.5400570021366,134.10695803357928,-197.41094053524907
-1527.7796189320513,350.65797188642404,82.0606425231858
-1559.2174697781609,898.139527769422,-159.6590068983802
-1664.8498722805443,1886.1894734695336,-521.7153666134715
-1961.6994590405493,3070.192165520336,-773.4822798815092
-2047.6105499839398,3934.7585566936723,-652.0983210372553
-2055.1360556357167,4121.223863398816,-574.3469992301143
-1965.0339310569868,3943.262989909909,-493.90464633692443
-1842.7189713102848,3871.5565458133005,-617.418792350089
-1568.4153100192218,3757.6236533372767,-569.7541974068617
-1064.4307689170105,3545.9713561715776,-431.97932015520087
-581.9010569358549,3295.3047166973433,-349.33743939061765
-259.1588360959145,3022.234912023984,-316.1099865907318
-103.06679651053113,2595.7284087838357,-280.9358955402712
-30.903927436994287,2058.093232653353,-199.54826571765082
93.76198803872883,1546.7157490070515,-164.55874330173913
439.549693320349,933.6001590757294,-63.120331611712466
679.787695084458,649.1717355060088,-74.26073123849633
1120.2908230639414,24.31747844574855,95.35509067826425
1212.942238175116,-69.04090591588361,120.60591537375149
1162.5886515782659,-2.069279519509721,209.89124726588594
1242.8097260532395,450.09151953011485,653.0497162639638
1281.8648570102941,426.752254847476,673.3369703211597
1041.8032661510304,155.98292995059478,470.4991001004421
939.763323866968,120.5406535361209,312.10454130615454
820.1771247061943,155.1916301693239,188.53329118506323
659.3821539465567,313.04981823558506,-38.1108737438371
573.2385677066073,487.14698699351976,-114.55593908215346
505.1245838283206,800.8096546731045,-144.10731493425382
416.72742475769,1911.9067163608372,-145.254495673854
491.75202541132813,2807.7580009483363,-276.6653240403196
714.8292230272316,3901.709554231058,-622.3817511586526
605.2984454426334,5083.8767570985,-914.5069927039306
-113.40264004527542,5727.134138569237,-1002.0108803719927
-1027.49664768295,5907.766668536147,-1075.178577801798
-1611.1822079915162,5382.724987635941,-1027.2111271433162
-1714.95872698628,4486.639168319457,-947.2480408702259
-1638.6839542555308,3520.3662820637023,-770.1620838920529
-1467.0657156113457,2819.5765118567506,-674.9613782484336
-1472.3274512703115,2290.1704455649997,-606.5353612089756
-1479.8427597599589,1690.6792839552752,-588.9269016432728
-1387.8337658629605,1190.671636083678,-609.4099412133604
-1244.9409329383634,802.4605752219157,-629.5075280549423
-1089.6993366746035,507.04674888978406,-645.8087114356075
-995.01766658339,231.69176018314107,-635.6125690220413
-1005.1026599297417,73.81327976424161,-560.6634273681635
-1077.8094456312808,-40.353535611039455,-412.2314959746703
-1177.9761692321028,-166.02101635114948,-275.94642411017014
-1228.4011359638614,-265.13029423911325,-154.70420581952047
-1271.3719771787514,-360.500272774087,-41.21183074750297
-1414.611513615761,-505.32036934121237,78.7943895213962
-1528.024350823166,-658.355299720088,171.80280727873435
-1510.4852319599456,-820.1404149225272,266.8026288283971
-1444.2342696027697,-986.5224108130709,323.3000056084392
-1369.1831563275941,-1118.924403338551,293.4743260950478
-1363.4115625621391,-1200.5730805116937,254.59050746177343
-1336.3177027833156,-1209.4752030509912,149.0610962969006
-1309.6623209760726,-1106.4838655402202,7.826627849469494
-1305.8281880152754,-999.3830716911484,-125.91455797851458
