acc_x[mg],acc_y[mg],acc_z[mg]
-980.972095465832,272.96171475478377,94.4381618595545
-981.5441562613125,268.9562694702065,78.74462737020289
-950.1990995905841,284.2958604620335,90.9362524409457
-954.215761753504,280.4219585689303,86.96455976301796
-958.2334436326371,276.5490763920401,82.99276511346893
-969.6573243666289,276.6724620538104,86.7458306353342
-973.7290512050498,265.06197325284376,82.79942691948831
-961.6780450000766,276.6816394997273,94.71460692489282
-950.0084126587572,292.06711772113823,94.83748272855665
-950.4448511979117,288.09532307158923,83.07046748889785
-946.782030560895,280.29449404230803,79.22705511056273
-954.4615133608319,284.22244089469905,79.09877481097011
-946.8911401956838,284.12862700310507,75.287891379829
-946.6453885883559,280.32814467733635,83.15357436025555
-954.1617167942162,288.1595651930068,86.93927080093611
-951.0169119933923,284.0898777870119,67.37693299954624
-969.7389016636672,284.3753983266457,82.79402242355953
-981.571688599063,265.0874661581682,78.7572718512438
-969.8204789607054,272.77000810674394,82.83195586668232
-950.7171154267768,288.0270020853197,75.21742898951223
-958.9146140629065,276.3777640682598,63.360066893383575
-965.9669713918616,272.7394166203546,82.88977377595816
-954.9254842377368,295.6922088582748,63.354662397454796
-947.3000463970878,264.71730917285726,67.49797331402671
-958.9421464006567,253.19961454727152,67.36245302932194
-958.55975282079,268.7431487816941,75.16501557616516
-942.8469456950131,272.5609662830834,83.23668123161326
-958.0692693223477,261.1421841301566,90.89648350863956
-951.3982858570462,249.23699734363927,63.56421407922176
-958.5057078615023,257.17140919682055,79.12946826898074
-958.5057078615023,257.17140919682055,79.12946826898074
-977.9629129213342,249.54801078859754,74.93914843499056
-954.6522002926587,276.45118363559425,75.19754452335916
-961.8411995941531,272.7781658364478,90.80073215624093
-958.1783789571364,284.2866830161166,82.96747615138709
-962.5233897406354,272.6078732288804,71.16793196453428
-953.9159651868887,284.35908286723804,94.80495378136266
-961.6780450000766,276.6816394997273,94.71460692489282
-962.0053739044424,288.1850580983313,82.89701376107031
-969.8755436362061,265.0324014826674,82.85724482876417
-950.5804734542379,288.06167243656097,79.14394823920503
-958.3965982267135,272.6466224449736,79.07889034481705
-954.9254842377368,276.3828626493247,67.34440405235223
-966.3493649717284,276.506248311095,71.0974695742175
-977.6090713954309,241.91339550203182,86.74399514615084
-947.4081363156636,229.9327497157541,71.53839486470916
-935.1664431788635,249.3236732217424,87.35480515772461
-942.7918810195124,260.9892266982099,87.20123589605014
-969.5482147318403,272.83832909301344,90.68509633768923
-969.9030759739566,280.4729443795792,78.88014765490765
-949.9533479832564,280.4953781362647,98.80203739299354
-966.1576583236886,264.96815936124983,78.9885434883472
-942.573661749935,272.629287269353,91.08982170262017
-958.424130564464,288.0871653418854,75.10179317096052
-942.9560553298018,295.70546516904346,75.30777584598206
-954.9795291970246,268.6452560252482,67.36969301443409
-958.3965982267135,272.6466224449736,79.07889034481705
-951.2075989252193,276.3186205279071,63.47570271193528
-966.5951165790563,280.3067306368638,63.23178659379095
-962.305170471058,284.24793380002353,75.0566197427256
-958.4516629022145,284.2183620298471,75.11443765200146
-958.3690658889632,276.51440604079886,79.06624586377612
-962.03188652598,265.0069085773429,86.89950186862997
-977.418384463604,268.9950186862996,86.65548377886435
-962.03188652598,284.31625478629303,82.90965824211122
-965.8853940948235,284.3458265564694,82.85184033283538
-965.776284460035,280.51169359567234,86.79110603519042
-973.6739865295489,272.7995798769203,82.77413795740647
-958.1783789571364,264.9773368071666,86.95731977790581
-950.525408778737,257.18058664273735,87.09824455853936
-953.8343878898504,276.6561465944028,98.75676199313733
-966.0760810266504,276.5745692973646,78.95061004522442
-961.432293392749,292.19050338290856,98.59054825042192
-973.5924092325107,265.095623887872,86.72594616918113
-962.03188652598,265.0069085773429,86.89950186862997
-954.6522002926587,257.1418374266442,79.1872861782566
-954.678712914196,253.27303411460596,79.19993065929752
-958.9686590221943,249.33081123523326,67.37509751036288
-954.9785094808117,249.33590981629814,71.35953664095284
-947.5447782882025,249.20742557346296,63.62203198849761
-954.9244645215239,257.0735164403747,71.33414570724968
-954.4615133608319,264.913094685749,83.08851646586756
-958.6688624555787,272.5772817424911,71.22574987381013
-954.9519968592741,272.5140593372865,67.35704853339317
-978.3453065012009,272.6241886882881,59.15700060673115
-966.7307388353822,280.27206028562256,59.30526734409815
-959.351052602061,253.09764292597373,55.58279330862222
-954.4339810230814,268.78189799778727,83.07587198482663
-962.4683250651344,261.03511392779393,75.13248662897117
-958.6688624555787,272.5772817424911,71.22574987381013
-969.9846532709947,268.86653444346445,78.91808109803043
-946.9727174927219,272.5222170669903,75.32582482295177
-954.4615133608319,264.913094685749,83.08851646586756
-954.2973390505423,268.81554863281553,87.00249320614074
-951.2075989252193,276.3186205279071,63.47570271193528
-958.7779720903674,276.4124344195011,67.28658614307639
-966.1576583236886,264.96815936124983,78.9885434883472
-973.9197381368767,257.29071599373896,78.89819663187737
-958.55975282079,268.7431487816941,75.16501557616516
-966.4034099310164,268.76864168701854,71.12275853629936
-958.8055044281178,272.54363110746283,67.29923062411731
-958.8595493874057,264.8060244833863,67.32451958619917
-974.2195347034921,272.66293790438124,67.06795898701392
-966.0485486888999,261.1340264004528,82.92770721908094
-950.6620507512761,257.1459162914961,83.17162333722526
-978.4819484737399,253.2801721280968,59.22022301193579
-962.8772312665387,260.9331423064961,63.35282690827144
-962.494837686672,257.16631061575566,75.14513111001209
-962.9863409013271,264.76727526729314,59.41366317753769
-958.6148174962909,261.0055421576176,75.19030453824702
-954.7613099274472,260.9759703874412,75.24812244752286
-962.3867477680963,272.64152386390873,75.09455318584838
-970.8575303493039,280.23331106952935,51.39430896381537
-966.3218326339781,261.06570541418324,75.07466871969531
-947.0818271275105,276.35736974400027,71.38666109221805
-954.5155583201196,276.4848342706225,79.12406377305197
-954.8163746029481,272.54770997231475,71.28366975470726
-943.2007872209165,280.1966012858622,71.43183452045297
-966.0760810266504,276.5745692973646,78.95061004522442
-950.6355381297386,261.0147196035344,83.15897885618433
-946.5903239128552,268.75640509246284,87.11812902469244
-958.2874885919249,268.8114697679636,83.01805407555078
-958.8055044281178,272.54363110746283,67.29923062411731
-962.3316830925955,280.3791304879852,75.06926422376654
-954.6256876711212,280.3199869476325,75.18490004231823
-946.8636078579333,268.6880841061933,79.26498855368553
-954.9519968592741,272.5140593372865,67.35704853339317
-958.0417369845973,265.01098744219485,90.88383902759863
-946.8911401956838,284.12862700310507,75.287891379829
-958.8330367658681,268.67482779542456,67.31187510515825
-942.9825679513393,272.52731564805515,79.31016198192044
-954.6522002926587,276.45118363559425,75.19754452335916
-958.8595493874057,264.8060244833863,67.32451958619917
-962.2776381333075,268.8073909031117,79.03371691658212
-958.9146140629065,257.0684178593098,67.34980854828102
-962.2501057955573,253.36684800619992,83.01081409043863
-958.7779720903674,276.4124344195011,67.28658614307639
-954.9244645215239,257.0735164403747,71.33414570724968
-978.4003711767016,264.88658206421155,59.182289568813005
-962.2776381333075,268.8073909031117,79.03371691658212
-962.03188652598,265.0069085773429,86.89950186862997
-958.7239271310796,264.8406948346275,71.25103883589198
-947.0267624520097,264.78563015912675,75.35111378503363
-951.3442408977583,256.97460396771584,63.538925117139904
-959.3235202643106,256.966446238012,55.57014882758129
-958.4781755237518,261.0402125088588,79.11682378793982
-959.2144106295219,253.131293561002,59.50941452993632
-966.4849872280546,257.16223175090374,71.16069197942214
-970.4476044316868,261.0269561980901,67.16371033941255
-963.0954505361159,249.29206201914008,59.464241101701404
-969.6848567043792,272.8036587417722,86.75857708799641
-962.3592154303458,257.2009809669969,79.0716503597049
-962.6049670376735,261.00146329276566,71.20586540765706
-951.1260216281811,268.61568425507187,67.42751092370995
-965.776284460035,261.2023473867223,90.78084769008787
-969.8204789607054,272.77000810674394,82.83195586668232
-958.7779720903674,276.4124344195011,67.28658614307639
-946.5097663320299,280.3628150285776,87.08019558156965
-962.1409961607686,268.84104153813996,82.96023616627494
-955.1161711695637,268.610585674007,63.443173764741275
-962.9322959420394,272.5048818913696,59.38837421545584
-966.8123161324204,249.3563041405577,63.332942442118366
-962.0594188637303,261.1381052653047,86.91214634967089
-958.5872851585405,264.8743454696558,75.1776600572061
-966.6756741598815,249.39097449179894,67.25946169181118
-962.440792727384,264.9039172398322,75.11984214793024
-946.8360755201828,272.55688741823155,79.25234407264459
-966.375877593266,272.6374449990568,71.11011405525842
-950.4713638194492,284.22651975955097,83.08311196993878
-963.0954505361159,268.60242794430314,55.47439747518266
-959.023723697695,260.90357053631976,63.410644817547286
-951.8622567339511,260.70676530721505,47.82010166570644
-943.4465388282442,264.6867176864679,67.55579122330256
-954.679732630409,272.582380323556,75.21018900440008
-951.0984892904306,272.4844875671101,67.41486644266901
-958.7779720903674,276.4124344195011,67.28658614307639
-958.7239271310796,264.8406948346275,71.25103883589198
-958.424130564464,268.77781913293535,79.09153482585796
-950.5529411164874,272.6211295396492,83.12104541306155
-963.1229828738664,264.7336246322649,55.48704195622359
-958.6688624555787,272.5772817424911,71.22574987381013
-950.8802700208532,264.8152019293031,75.29329587575779
-959.1053009947332,268.606506809155,59.458836605772625
-954.679732630409,272.582380323556,75.21018900440008
-954.4064486853309,272.6507013098255,83.0632275037857
-958.6963947933292,268.7094981466658,71.23839435485105
-947.3000463970878,264.71730917285726,67.49797331402671
-954.4890456985822,280.3536375826608,79.11141929201105
-950.6895830890263,272.5864591884079,79.19452616336875
-947.5723106259529,264.64796847037474,59.6449348146411
-951.1525342497184,245.43753473408353,71.4299990312696
-955.0611064940628,257.0388460891334,67.40762645755687
-958.9146140629065,257.0684178593098,67.34980854828102
-951.8897890717014,256.8379619951768,47.83274614674737
-963.0679181983656,253.16086533117837,59.45159662066048
-962.5774346999232,264.87026660480393,71.19322092661614
-970.3109624591476,261.06060683311836,71.09022958910536
-951.26266360072,268.5810139038306,63.50099167401712
-966.185190661439,261.0993560492115,79.00118796938813
-970.9115753085918,253.1863582365028,55.40933958079467
-962.9588085635769,249.32673237038134,63.390760351394206
-974.3551569598183,253.31892134418993,67.13118139221855
-985.8616347070611,261.14524327879553,66.93243870230916
-955.4975450332173,253.0670514395844,55.64061121789807
-962.6314796592109,257.1326599807274,71.21850988869798
-958.8055044281178,253.23428489851275,71.28897227901476
-979.1090739447213,241.53712021944295,43.551977484666025
-962.494837686672,257.16631061575566,75.14513111001209
-966.185190661439,261.0993560492115,79.00118796938813
-974.545843891645,245.54766408508513,63.22995110460759
-973.8922057991263,261.15849958956426,78.88555215083643
-982.5261429744103,264.8478328481184,51.27143316015154
-966.0220360673626,265.00282971249106,82.91506273804002
-950.7711603860647,260.98004925229316,79.23245960649152
-958.2334436326371,276.5490763920401,82.99276511346893
-966.0220360673626,284.3121759214411,78.92532108314258
-982.0081271382176,261.1156715086192,66.99025661158501
-954.7613099274472,260.9759703874412,75.24812244752286
-963.831685641886,260.6935089964463,35.86698821717916
-959.0777686569829,253.16596391224326,63.43593377962914
-954.7062452519465,268.7135770115177,75.22283348544102
-970.1478078650712,264.96408049639786,75.00420632937853
-966.24025533694,272.6710956340851,75.03673527657254
-958.8330367658681,268.67482779542456,67.31187510515825
-970.2844498376104,264.9294101451566,71.07758510806444
-970.6658237012641,268.6952221196841,59.285382877945075
-951.4533505325469,260.8097566447258,59.59976138640617
-958.6413301178283,257.1367388455793,75.20294901928794
-959.2419429672724,249.26249024896376,59.52205901097725
-958.6688624555787,253.26793553354102,75.21559350032886
-962.4683250651344,261.03511392779393,75.13248662897117
-955.3068581013904,260.8393284149022,59.54194347713032
-963.3401824272305,253.09254434490884,51.59845614965356
-966.7572514569197,257.09391076463424,63.30765348003652
-970.4751367694372,257.1581528860519,67.17635482045348
-970.0386982302825,261.1289278193879,78.94337006011229
-966.2127229991895,257.2305527371733,79.01383245042906
-978.4268837982391,261.0177787521733,59.194934049853934
-966.1311457021512,268.83696267328804,78.97589900730627
-977.9639326375471,268.85735699754764,70.94930480847181
-970.7749333360526,253.22102858774406,59.33596080210879
-970.7749333360526,272.5303747966941,55.346117175590045
-963.4227794404819,260.79650033395706,47.646647937878896
-958.5872851585405,264.8743454696558,75.1776600572061
-966.5665645250929,245.55582181478897,71.19862542254491
-958.7504397526169,260.9718915225893,71.2636833169329
-970.4200720939364,245.58641330117834,71.14080751326907
-966.8123161324204,249.3563041405577,63.332942442118366
-959.023723697695,260.90357053631976,63.410644817547286
-947.0002498304722,268.65443347116496,75.33846930399271
-979.21818357951,245.37227289645296,39.612813753932286
-951.8082117746632,268.4443719312916,47.79481270362459
-966.6216292005936,257.1285811158755,67.23417272972932
-947.2725140593374,268.5850927686825,67.48532883298579
-955.8248739375833,264.5714897544014,43.82312002569685
-963.0138732390776,260.8984719552549,59.42630765857862
-959.351052602061,253.09764292597373,55.58279330862222
-951.4533505325469,260.8097566447258,59.59976138640617
-962.8496989287883,264.80194561853443,63.34018242723051
-955.7157643027947,260.7363370773914,47.76228375643059
-955.742276924332,256.86753376535313,47.774928237471514
-959.1603656702341,260.86890018507853,59.48412556785447
-950.9618473178915,253.20879199318833,75.33122931888057
-966.5940968628432,260.9963647117008,67.2215282486884
-958.7239271310796,264.8406948346275,71.25103883589198
-974.5468636078581,264.8570102940352,59.24020944971016
-982.1447691107567,261.0820208735909,63.063737361892194
-966.5665645250929,264.86516802373905,67.20888376764746
-966.8938934294587,257.059240413393,59.381134230343704
-966.7032064976318,264.8315173887107,63.28236451795466
-963.3952471027314,245.3549377208323,51.62374511173542
-967.0030030642473,260.89439309040296,55.441868527988674
-962.6314796592109,257.1326599807274,71.21850988869798
-970.2293851621095,253.35767056028308,75.04213977250133
-962.3316830925955,261.0697842790352,79.05900587866398
-966.648141822131,253.2597778038372,67.24681721077025
-970.3660271346486,253.32300020904185,71.11551855118722
-954.3789163475807,257.2101584129137,87.04042664926352
-970.4476044316868,241.71760998914004,71.15345199430999
-974.410221635319,245.5813147201134,67.15647035430041
-954.7062452519465,249.40423080256767,79.21257514033846
-955.1977484666019,276.3145416630552,59.49136555296662
-967.2487546715749,245.38552920722168,51.56592720245957
-967.3027996308629,256.9572687920952,47.60147450964397
-962.904763604289,257.06433899445784,63.36547138931237
-966.8663610917082,241.6186975164812,63.35823140420022
-962.6865443347118,268.7043995656009,67.2540571958824
-978.4544161359894,257.1489754401351,59.207578530894864
-970.6933560390144,264.82641880764584,59.298027358986005
-974.8191278367233,245.47934309881563,55.37681063360068
-955.1702161288515,260.87297904993045,63.468462726823134
-951.3167085600079,260.84340727975405,63.52628063609898
-951.4258181947964,264.6785599567641,59.58711690536525
-954.8693998460229,245.50075713928817,75.29870037168656
-959.3235202643106,256.966446238012,55.57014882758129
-967.6036159136914,253.0201444937874,39.76097851967798
-962.8772312665387,260.9331423064961,63.35282690827144
-958.887081725156,260.937221171348,67.3371640672401
-970.529181728725,249.42054626197532,67.20164378253533
-958.3965982267135,272.6466224449736,79.07889034481705
-958.2059112948867,261.1085334951283,86.96996425894675
-962.5233897406354,272.6078732288804,71.16793196453428
-970.5567140664755,264.8610891588871,63.224546608678814
-966.838828753958,245.48750082851944,63.34558692315929
-958.9421464006567,253.19961454727152,67.36245302932194
-958.8595493874057,264.8060244833863,67.32451958619917
-958.3690658889632,257.2050598318488,83.05598751867356
-967.3843769279011,245.35085885598042,47.63940795276675
-958.7504397526169,260.9718915225893,71.2636833169329
-966.7572514569197,257.09391076463424,63.30765348003652
-966.6756741598815,249.39097449179894,67.25946169181118
-966.3483452555155,257.19690210214503,75.08731320073625
-959.5682521554253,241.4565626386177,51.69420750205219
-951.1535539659313,264.7468809430336,67.44015540475087
-962.6049670376735,261.00146329276566,71.20586540765706
-962.6314796592109,257.1326599807274,71.21850988869798
-966.8938934294587,257.059240413393,59.381134230343704
-947.3265590186253,260.848505860819,67.51061779506765
-963.232092508655,268.5677575930619,51.547878225489846
-962.8772312665387,260.9331423064961,63.35282690827144
-967.6576608729792,245.28253786971092,39.786267481759836
-959.6233168309261,253.02932193970423,47.729754809236596
-959.8140037627528,245.25704496438644,43.82842255000434
-967.1121126990361,245.41917984224995,55.49244645215237
-955.6606996272938,268.4739437014679,47.73699479434874
-967.1936899960742,253.1221161150852,51.54063824037771
-970.8565106330908,260.92396486057936,55.38405061871281
-963.5043567375201,268.49943660679236,43.69473775448294
-963.5859340345584,256.8930266706776,43.73267119760571
-967.4119092656514,260.7914017528922,43.662208807288934
-962.5774346999232,264.87026660480393,71.19322092661614
-967.0030030642473,260.89439309040296,55.441868527988674
-974.1644700279913,261.09017860329476,71.03241167982952
-985.3160865331179,261.28290496754755,82.6386176727017
-966.5125195658048,253.2934284388655,71.17333646046306
-966.2943002962277,245.6241428010585,79.05176589355183
-959.7864714250026,249.12584827642473,43.81577806896341
-955.4424803577166,260.8046580636609,55.61532225581621
-958.7229074148664,245.53134862567754,75.24088246241072
-963.4492920620193,237.61835081296877,51.649034073817255
-951.1800665874688,241.5687314220453,71.44264351231054
-967.2212223338247,249.25433251925992,51.55328272141864
-955.8248739375833,245.2621435454513,47.812861680594295
-959.7589390872521,233.6853053795129,47.79297721444123
-947.6814202607416,249.1737749384347,59.695512738804794
-955.3884353984288,249.23291847878738,59.5798769202531
-947.7629975577798,256.87671121126994,55.74370452703013
-947.0267624520097,245.4762839501767,79.34085543993108
-959.7324264657146,256.8634549005012,43.79059107850286
-970.6658237012641,249.3858759107341,63.27512453284252
-978.5094808114903,268.7207150250086,55.243125838079266
-974.1644700279913,261.09017860329476,71.03241167982952
-958.3690658889632,257.2050598318488,83.05598751867356
-962.5233897406354,272.6078732288804,71.16793196453428
-971.1297945781689,260.8556438743098,47.531012119327194
-970.5567140664755,264.8610891588871,63.224546608678814
-955.0070615347751,264.77645271320995,67.38233749547501
-956.0430932071605,252.93040946704534,39.93443224750553
-958.4781755237518,261.0402125088588,79.11682378793982
-958.3415335512128,261.0738631438871,83.04334303763264
-966.6756741598815,249.39097449179894,67.25946169181118
-958.6688624555787,253.26793553354102,75.21559350032886
-952.0254113280275,256.8043113601485,43.90622689705455
-962.6049670376735,261.00146329276566,71.20586540765706
-951.3442408977583,256.97460396771584,63.538925117139904
-970.0927431895705,253.39132119531135,78.96865902219413
-954.8428872244856,268.6789066602765,71.2963142357482
-951.5349278295851,249.203346708611,59.63769482952895
-959.6233168309261,253.02932193970423,47.729754809236596
-959.2419429672724,268.5718364579138,55.53221538445851
-955.333370722928,256.9705251028639,59.55458795817125
-962.3592154303458,276.510327175947,75.08190870480746
-959.7324264657146,256.8634549005012,43.79059107850286
-943.4465388282442,264.6867176864679,67.55579122330256
-962.5499023621727,249.42972370789215,75.17042007209395
-963.5584016968079,241.4524837737658,47.70987034308353
-956.0155608694103,256.7992127790836,39.9217877664646
-952.325207894643,252.8671870618407,36.065730907088565
-963.7501083448477,252.99057272361102,39.818796428953824
-959.486674858387,253.06297257473247,51.656274058929405
-962.9588085635769,249.32673237038134,63.390760351394206
-956.0971381664484,245.19280284296886,39.95972120958738
-968.0125221150955,252.91715315627664,27.981318798978247
-944.0736642992257,252.94366577781406,51.8875456960328
-971.2654168344951,241.5116273141185,47.59423452453183
-959.5142071961375,249.19416926269423,51.668918539970335
-979.681134740202,237.53167493486566,27.858442995314405
-974.7375505396849,257.08473331871744,55.338877190477895
-963.831685641886,241.38416278749628,39.856729872076606
-966.7307388353822,260.9627140766725,63.29500899899559
-975.1464567410891,237.67341548846957,47.54906109629691
-963.2586051301923,245.38960807207357,55.55026436142822
-959.2959879265601,241.52488362488722,59.54734797305911
-959.4050975613488,245.3600363018972,55.60808227070407
-959.023723697695,241.59422432736972,67.40038647244472
-967.0305354019978,237.71624356941464,59.44435663554833
-967.0845803612856,229.97863694533817,59.46964559763018
-963.9673078982121,222.04014622730497,39.91995227728124
-963.4768243997696,233.74954750093053,51.661678554858184
-959.1053009947332,249.29716060020502,63.44857826067007
-950.8262250615654,253.2434623444296,79.25774856857338
-971.1563071997065,237.67749435332152,51.53339825526557
-959.4326298990992,241.49123298985896,55.62072675174499
-954.8979518999863,260.94130003619995,71.32150122620875
-974.6824858641842,245.5129937338439,59.30332988329348
-978.5900383923156,237.80495887994374,59.27080093609949
-966.2392356207268,253.36174942513503,79.02647693146999
-966.9754707264968,245.45385019349118,59.419067673466486
-986.8701340416962,253.1690230608822,39.47188897329874
-975.0373471063004,233.8382628114596,51.48822482703064
-970.6107590257633,237.81413632586055,67.23957722565811
-986.7610244069076,249.33387038387218,43.41105270403247
-967.0305354019978,237.71624356941464,59.44435663554833
-967.2487546715749,245.38552920722168,51.56592720245957
-967.3578643063636,249.21966216801866,47.62676347172582
-955.4700126954671,256.9358547516227,55.62796673685714
-951.5349278295851,268.5126929175611,55.6479531746315
-966.78478379467,253.225107452596,63.320297961077436
-959.541739533888,245.32536595065594,51.681563021011264
-955.142683791101,245.43243615301864,67.44555990067964
-978.2637292041625,245.61088649028977,67.09865244502456
-963.3952471027314,245.3549377208323,51.62374511173542
-978.9724319721823,241.5717905706842,47.47859870598013
-982.0897044352557,230.19991536355437,71.01793170960522
-974.9822824307997,241.57586943553613,51.46293586494879
-990.2596707336351,241.72882686748284,55.15818347753821
-973.9462507584141,253.42191268170072,78.91084111291828
-966.6756741598815,249.39097449179894,67.25946169181118
-959.9231133975416,249.0921976413964,39.8892588192706
-948.3901230287612,245.1336593026161,40.075357028139074
-967.2487546715749,245.38552920722168,51.56592720245957
-971.3469941315333,249.21558330316677,43.64232434113587
-974.9557698092622,245.44467274757437,51.45029138390786
-963.9407952766746,245.2182957482933,35.91756614134287
-968.4204086002866,233.50583532602877,20.191502704797255
-960.0046906945797,237.48578770528164,39.92719226239338
-951.6980824236616,245.2998730453315,55.72371808925577
-963.0954505361159,249.29206201914008,59.464241101701404
-960.1413326671188,256.7604635629904,32.01093135780312
-971.646790698149,245.27845900485897,35.80193032279117
-948.1994360969343,252.9049165617209,43.97668928737133
-956.5611090433534,256.6625708065446,24.215608796072054
-978.6175707300658,253.24652149306849,55.29370376224298
-975.337143672916,268.5198309310519,35.66824552726976
-967.4669739411523,253.05379512881566,43.687497769370786
-963.2861374679428,260.8301509689853,51.573167187571705
-966.8663610917082,241.6186975164812,63.35823140420022
-952.189585638317,252.90083769686896,39.992250156781374
-951.2351312629697,253.14047100691883,67.47808884787365
-959.8966007760042,252.9599812372217,39.87661433822968
-971.2929491722456,256.9531899272433,43.61703537905401
-978.3453065012009,253.31484247933804,63.146844233249894
-974.874192512224,257.0510826836892,51.41235794078509
-967.1671773745368,256.99091942712346,51.52799375933679
-955.7973415998329,249.12992714127662,47.80021719955337
-951.7806794369129,253.00382903437978,51.7719098774811
-963.4227794404819,260.79650033395706,47.646647937878896
-951.0709569526801,257.04292495398533,71.39206558814682
-962.7956539695004,253.2291863174479,67.3046351200461
-952.2711629353552,260.60377396970426,36.040441945006705
-959.9241331137545,268.40154385034646,35.89951716437316
-971.5927457388609,253.0150459127225,35.77664136070932
-966.8673808079213,260.9280437254312,59.368489749302775
-967.0845803612856,249.28798315428818,55.47980197111144
-974.6284409048964,253.25060035792043,59.278040921211634
-970.9115753085918,253.1863582365028,55.40933958079467
-975.2830987136282,256.9480913461784,39.63269822008536
-959.0777686569829,253.16596391224326,63.43593377962914
-963.232092508655,268.5677575930619,51.547878225489846
-967.0305354019978,257.02558977836475,55.45451300902959
-983.2348457424299,241.4983710033498,35.64112107600455
-974.6549535264337,249.3817970458822,59.290685402252564
-982.9350491758146,245.43549530165757,43.48151509434925
-947.7629975577798,256.87671121126994,55.74370452703013
-959.8140037627528,245.25704496438644,43.82842255000434
-963.7215562908843,237.55002982669924,43.795893602810345
-951.5073954918347,253.0721500206493,59.62505034848802
-975.8551595091087,233.63329985265105,27.928905385631182
-971.2929491722456,237.64282400208026,47.60687900557276
-979.627089780914,245.26928155894217,27.833154033232557
-964.0223725737128,233.61290552839148,35.95549958446565
-974.6009085671459,237.81005746100865,63.25524006668945
-956.1246705041988,241.32501924714356,39.9723656906283
-960.6593485033117,241.18327869353965,20.2818495612671
-964.294636802578,233.543564825909,28.10235911345873
-971.5101487256098,226.00276343093722,43.718191227381425
-960.3044872611953,233.54866340697387,32.08679824404869
-968.0115023988825,233.60780694732657,31.971162425496985
-968.039034736633,229.73900363528833,31.983806906537914
-959.949626019079,225.91404812040813,43.89164495520897
-967.8758801425564,233.64247729856783,35.8976816751898
-976.0998914002234,218.12443596946972,24.052964060102077
-972.0832292373034,221.99731814635987,28.02465673802981
-975.2005017003769,229.93580886439307,47.574350058378755
-965.0033395705976,229.5044689063034,8.482305374414302
-972.4105581416693,233.50073674496392,16.2070635742073
-986.7059597314069,218.45278459004862,51.365349023366804
-968.2297216684598,221.96774637618353,28.08247464730566
-944.9730539990722,241.1322928828907,28.366261669377415
-964.3486817618657,225.80697791804545,28.127648075540584
-972.3014485068805,229.6666037841669,20.146329276562334
-987.6328817690039,222.08195459203708,23.866865851233605
-972.0281645618026,210.42557856148636,31.989211402466697
-972.2463838313798,218.09486419929337,24.110781969377925
-975.8541397928958,214.32395364370097,31.918647040528622
-967.847328088593,218.20193440165605,39.874778849046315
-964.294636802578,214.2342186169589,32.09220273997747
-968.4204086002866,214.19546940086576,24.1812443596947
-977.3000973828985,221.68528498518864,-11.298659583038042
-984.4064996711415,210.30933091320688,8.2564076417533
-980.280727873433,210.34808012930003,16.16729464190116
-968.775269842403,221.83110440364447,12.376295676913116
-968.8843794771916,225.66523736444154,8.43712174901725
-945.954020995957,217.71552976806558,4.882798917061383
-977.3541423421863,213.94767836111214,-11.27337062095619
-980.4173698459721,210.31340977805877,12.240775392208349
-965.2215588401749,217.86338861894737,4.59368897635788
-965.3306684749634,202.38919508700732,4.644266900521585
-953.5794588366058,210.071737035583,8.718991704608609
-945.76333406413,206.17744081822033,12.773781056731911
-964.9482748950969,198.62236339626685,16.436499722127333
-969.3197983001331,183.07475029699236,4.649661199288239
-988.5322714688505,190.96123548816365,4.335262296502884
-965.2756037994627,190.81745550213378,8.608739987661435
-974.1002279065737,186.73451178537016,-22.90659909347229
-962.0757343231379,175.17602851126532,-6.989053346453682
-955.650502465164,167.07030433430378,-42.187087333595066
-947.0716299653807,174.95373037683615,-18.53742103572576
-969.1556239898438,167.66887775132182,12.553318411486083
-958.6321526719114,175.0434654035782,-18.710874763553303
-962.7028597941194,163.43297660261152,-22.657278479399185
-961.5301861491947,156.00332427485432,12.70688767316056
-958.9859941978148,163.3687344811939,-26.526081791437445
-958.6046203341612,159.6029225066664,-14.733777589696789
-975.2443494975349,140.10390908210246,-46.314184762380634
-962.7844370911575,151.82656666649672,-22.619345036276407
-959.3398357237181,151.6940035588096,-34.34118684770029
-932.0114412159097,143.85136616479636,-22.131512799987767
-929.5212942238176,124.16982353810936,-57.34945164760647
-925.6402543172236,128.00905507997126,-57.304176247750256
-902.2744770130474,143.33946862588144,-53.08132746656606
-902.2194123375465,131.7677290410079,-49.11687477375047
-897.574604987432,108.76497070865179,-21.497351287136794
-897.9559788510858,93.22133450260795,-29.29981186235871
-886.6412077518827,96.93228574487722,-36.99214308657901
-891.0953281701703,89.0878128616806,-52.73085100416555
-880.5157724605243,84.89035501419956,-80.03059148638934
-884.1510607597907,77.2511510046754,-72.20997996257643
-879.6163827606778,96.7018298807442,-56.50920548811267
-898.6381689975681,93.05022612207023,-48.93261205406536
-887.323397898365,96.76127933596081,-56.624841306664365
-913.888024962653,97.0721908092978,-45.25000892251687
-918.0698811520755,108.60589497942723,-57.125318023993934
-921.6225724380905,112.57259104791139,-49.342741914925085
-903.173866712894,92.9089954265728,-68.62312818342656
-926.4295146660685,54.43449088118777,-64.91707157897959
-910.8247974588674,42.77770696415188,-56.79472602774648
-896.6385055039184,61.66030193797067,-95.89217520763972
-946.7616362366356,77.48782713770758,-100.62100717370357
-973.5179699489634,108.64566391173338,-101.12688838696192
-985.1876022902828,151.18822431717254,-113.21909112693939
-981.3340947214391,151.15865254699617,-113.16096730279966
-961.9584669586455,147.1756410191044,-108.93322388379316
-968.8731625988489,104.95225178832733,-77.49710655524568
-961.1651277449487,46.964865677881846,-65.41214380038036
-952.5852355289525,16.22919141602892,-33.78299419271617
-959.909857086773,-6.786813029933771,-18.116584154629766
-968.1348880606529,-22.304762584572718,-29.961301769717494
-957.828616296085,-7.261225800859622,-69.10392437784566
-958.3476518484907,15.780108395833441,-88.81248948417657
-981.0863036816854,31.501889024284544,-81.35693636460974
-983.5489183360272,35.74248086757456,-42.161900343134505
-1006.288589885435,32.15491528707561,-30.716503597048945
-989.8925728969629,16.834596931673914,0.9776947275573209
-963.272881157174,4.951721535896561,-6.432716574977184
-958.6290935232727,20.56787995900741,13.20726241886883
-990.628808002733,28.235534050873643,-22.619548979519003
-1010.1145651165282,36.05339234091153,-30.78696598736572
-1028.5673497065768,55.71678401900751,-11.506579718864241
-1037.2757261654083,67.10884960715433,-43.0726088929451
-1036.0826581962242,63.54800059143541,-7.720985249804981
-1050.6747972039382,44.56282216659105,19.596804209388527
-1035.4300398199182,40.540857479363495,15.91420107784004
-1023.8154721540997,48.189034991561854,16.06236584358573
-1013.0411506477749,51.763242289670785,-7.336123956702851
-1017.930689889004,39.94738264341034,-34.84186750827245
-1017.8491125919658,32.24414045571118,-30.890059296497785
-1014.4320435622768,47.55252813142103,-46.58899828177819
-1032.8501578010842,51.775172969362636,-23.331412867798896
-1032.717594693397,51.80943543411869,-19.404893618106083
-1033.4211988803518,28.460279504213982,-35.035205702253066
-1033.1254811785882,32.39740380252176,-27.194709712287075
-1030.2804729443797,24.390796041461662,-54.59744153202164
-1022.1635318890753,5.124441068050762,-38.712404337872776
-1041.8950406101983,16.742618529263307,-54.74560629776734
-1058.128922720807,16.656350537645373,-78.5361973762702
-1057.853599343303,16.724773495536194,-70.68315887688458
-1069.9882222777403,32.11789958854451,-90.53988874896118
-1068.7237741736476,31.438258732594726,-165.0869563000617
-1164.4037464373666,-10.134317019573455,-138.90676224806637
-1175.4574701860474,49.00745922409794,-25.45813300158566
-1097.3676025961977,180.9710757496189,89.08036893332587
-1059.2710048793422,157.39217775693027,81.88137641294429
-1077.8196427934108,45.7243809047942,125.15079053499412
-1062.5442939230013,26.26166937741227,125.44548852054474
-1094.1351022010574,111.26939372772559,85.43926825164557
-1105.2602060846468,115.3299036878037,97.03282976347684
-1117.0685198309313,61.291572555357845,100.96291801991507
-1117.4764063161224,61.18898910433227,89.18325829921534
-1114.2744974073717,-12.38078242825022,85.55480209857598
-1104.18950406102,-28.28692774800773,46.51333533877522
-1096.3478863832197,-28.312216710089587,50.55549040701973
-1130.9468574895607,-16.438233239689396,49.997195780414316
-1149.7708187811334,6.991255933473716,57.48537981879643
-1151.3003931006003,2.746289507630027,14.30590466673125
-1168.2378793981636,-20.689022245109186,-25.11499849591859
-1176.3854119398572,-43.91030576190647,-33.00780592761035
-1177.2827622072778,-75.03112683740116,-52.53945027098959
-1174.1114447849163,-75.23190895973651,-72.1143305817991
-1178.7307592297066,-67.6698974675348,-95.75675689455626
-1159.539700101462,-40.80598369473776,-103.40942115809172
-1147.6294147338797,-29.220681884231624,-95.42055645913743
-1155.0121601158398,-21.355304818668966,-87.70844274038535
-1143.968633529289,-17.71267456266921,-103.25340457750609
-1133.383979238578,-21.910132410150258,-130.5532470313512
-1121.3411307633087,-10.29067010650936,-118.6378630827041
-1120.4131890094989,-13.919942080119103,-91.13988976867739
-1111.8271784962246,32.582074408692066,-75.46970678060296
-1075.729224556806,98.32195499992353,-47.678463083723805
-1075.1377891532788,164.12434419501054,-43.96690001172674
-1031.463343751434,191.15192241999054,-12.00695446457251
-1034.3083519856425,199.15873412429323,15.39577735516206
-994.4945521661324,226.21588411944958,47.29780302141914
-920.5161803470095,237.4276638811419,67.99131201786544
-908.1378452376704,237.5428918132084,91.72398321547115
-897.0412934080447,268.2332906752051,72.16358287488592
-849.7366582879985,283.59021684265275,100.29265855312468
-818.3090046040188,271.91650563648136,120.42644532026738
-832.4963162751807,310.96245914761926,147.5539557341192
-892.4892802333112,354.3371079828484,185.75558422091135
-911.2112699035861,373.93197473143226,197.182524103542
-914.0287458000439,385.80758974777325,224.57312130034217
-874.5953001279745,435.9398979264071,240.69279519509726
-839.2050292403625,439.7118281982125,260.8332101176243
-804.3327741889433,408.596207675404,273.2339789836489
-802.5584679783617,351.1127653174122,336.248362080833
-812.8627003105038,278.14085340049866,387.3606175401386
-813.3796964304835,204.63562990419769,387.6012705664014
-857.6476166682813,131.11511066470203,347.9394084626249
-893.2550871092576,96.39336572631838,327.8999454451826
-889.0191859605472,34.669229553415285,351.71949646413407
-810.5306093314232,-15.77460192828336,404.08600286540263
-727.0352260965774,-43.7839629231185,374.0339463527301
-734.633131599476,-47.55895234356279,377.8578821513973
-769.7786705959732,-35.82181478894424,361.59340855439933
-809.9493710900258,-16.625249193149546,309.9060331509741
-767.4516781979577,-59.40591333431907,322.4607791651584
-760.0709722484233,-125.19973691321707,326.7180943543412
-724.5440593882723,-102.08379008122041,346.7952868716637
-712.1392116573958,-59.48055656110905,362.53562633519095
-697.0259976648499,-63.536681741471355,354.9265039539497
-647.4769671600394,-25.44151162731412,331.99308632407605
-589.5132384657351,55.25271117048126,320.81495719741196
-532.5396542142322,136.69499778211724,392.03703609285543
-442.7475233642478,229.98475524261602,518.6551982583247
-437.42358501628996,323.0093864877405,541.9689700356391
-442.90863852589825,530.1759520325494,341.0318508359124
-705.062381139329,980.1502041981718,241.396399382052
-732.7986621323287,1903.2901143611734,473.3441083346505
-856.0119918626648,1143.4689725849298,631.046279820326
-792.4000550646756,582.5098275150026,692.7605247459633
-977.1675342752112,606.1631647912386,580.0237593877624
-969.5665696236739,455.46338454008253,608.1189804877304
-903.9712847914426,273.4695334288468,648.9616739661353
-1091.0453620757346,-108.95667735669164,553.2582482295178
-1001.4225041171044,-419.3399376953395,536.0250442301908
-983.7752953353082,-295.3179730081119,575.1168849709127
-1052.031019767199,100.40472536493095,635.5534254816885
-985.0529997501695,554.1035929700765,807.7090545701132
-1162.6090459025256,912.6857795475521,945.1260114310189
-984.42995314404,720.3224342665437,791.45987671631
-1006.1223761427196,627.1774765082878,740.4291985540425
-996.0241264855991,529.1766301438311,607.4735001249153
-834.1135861889637,434.2614450398455,519.9532969974457
-714.7486654464063,542.4451775070999,607.717212299817
-884.5365134882964,369.785808609464,189.74675347850697
-751.726634477625,339.3248458953874,360.59816553053287
-620.8052698933888,86.2695211922522,300.6184578831711
-432.2658604110477,50.98040615296763,413.45107656539193
-553.890472281564,387.4687074587143,724.4635018074471
-730.7255790713446,456.4647458612269,497.8784804188995
-913.0732717084837,462.4117308153141,569.695053866509
-987.0903927436995,568.0441333176977,634.9487337673926
-1045.4946388420105,657.1632514671168,598.4520707886995
-1012.7382949325205,627.5099039937186,771.725308846548
-991.9707545390119,493.4437346086585,509.53893531430214
-828.5989609091791,630.7332269429419,860.8148552257908
-816.4011155695371,560.2932703828525,782.7423228115616
-749.3547745662382,443.3195841597284,740.9706678631338
-919.3710390398353,475.4069942335048,718.692927758205
-879.1513921675598,257.27338081811837,590.5186786517313
-805.8174809950392,228.70705082775464,489.6728240530661
-820.9990159738545,442.2855919197688,563.2932754814336
-830.9687813881397,391.57306521595046,508.3703405342294
-845.2274731942101,356.22868155792247,437.6326268399505
-877.7472429422893,406.2467815207028,378.1077126235769
-735.4132145024041,331.7085855006552,388.3405648208104
-681.4651282548068,331.2915215695472,389.14919977770194
-644.863434506177,191.48027104056942,362.69674149684147
-729.2500497111655,337.11614057807714,565.0216944624311
-760.9336521646027,434.6836075520183,630.9371701855374
-755.1335063451843,318.28912013786567,600.0193746080466
-805.2535779292624,218.2600582257958,619.2298083443378
-770.0081067438932,131.17833306990664,431.66932642645554
-702.1011252568411,220.098606557795,483.4066679243167
-722.387359597824,294.3635186327645,549.5709544033896
-701.0916062059929,170.1467881488582,522.8360347315343
-761.4435102710917,414.2495143601536,509.3349920717065
-823.0027583323562,666.7699979095819,570.3548102563058
-669.2683026313778,414.4544773189621,612.755630108141
-759.3500328858479,350.1185420097587,694.0402685932506
-752.1528758546498,329.6253052775413,572.5533184114862
-581.292286356707,359.5397001014618,606.4089163985664
-683.719720801701,563.5604411292338,831.8141261286986
-736.0474779868764,381.8776034629563,804.1706393110798
-798.1267813167597,161.12229966400355,725.4934151825547
-748.4319313934933,136.46760106662316,608.5829513646353
-602.8103378829672,168.89457663932131,469.36823482024954
-669.5660597655674,313.9706219759042,624.8637404210409
-763.694023953134,338.43973222252254,682.24011257667
-801.6723345892839,198.85179954418686,615.4242274375042
-723.6956554990747,263.14082790759335,518.2595483676894
-714.7721189193048,364.7922583145111,643.6377356181775
-731.5841801226719,288.3186409222314,729.9862848169355
-752.8126322444465,183.70391520039976,694.6990052668343
-759.6467703038245,191.70664803985053,718.1178078140854
-785.4221370192676,246.28185975842925,741.0950732411171
-782.814722662683,237.2196417736944,595.9537660669037
-744.0614277046699,229.2525990016979,604.4102726211296
-754.7500930491045,275.9035960292251,619.7916719776887
-721.4023137360873,105.37747344913913,616.9415651624154
-768.6539236130585,155.68619253261818,576.8177716141598
-761.054998393947,140.15183574411242,576.9839853568753
-742.4431380746739,143.70044816527562,557.6277322021283
-717.7874197610805,296.514100125935,792.9588595493875
-673.8488678600746,478.0857887249979,800.8535024702627
-722.7065307724861,377.37657609887174,745.5165627405894
-651.7699724166765,220.7675403935085,601.8966721561391
-613.6162705918944,204.9262490248964,594.6719827871904
-599.7644455548023,182.2406224347764,665.5993636970832
-617.8593097540954,155.65050246516398,704.6646918162676
-612.4507349604606,144.42444667648996,751.8785721933587
-605.8888611299476,136.35441256698263,720.6069350899646
-701.460743475091,52.328063100039266,758.705572239246
-737.5943874819638,26.194470078977023,832.8205860309077
-682.2737632116983,21.263734302743547,763.0220309687815
-626.9276460361083,78.12994243701979,681.2428301203776
-626.0302957686877,186.48876017804247,684.8148960144393
-555.9074709508345,332.89553517256155,677.5218856592211
-612.5629037438881,283.4250228161503,720.0114208215855
-671.618748502292,279.69490090907703,683.8176135581468
-790.3677606522106,284.6568400014276,701.64531210964
-898.8981966318775,220.6747462181275,806.1998745749058
-963.0709773470044,217.65434679528687,844.495316953292
-1095.827831114601,216.3613466372309,1015.1947912895843
-1118.4859253669706,302.4906568501986,677.0466979039735
-1061.3716202780768,-15.802644124140253,612.2580085962078
-1051.5823446334887,-305.97808629858315,621.2325309866264
-988.1386610106408,-162.11856240408295,755.1345260613972
-1078.5334441424952,-128.11612528233394,584.9071803317137
-1047.952154915287,-350.5386650895056,401.65907827851515
-1499.1153961852417,623.2016029938868,297.4247067041243
-916.6045489540262,606.2855307367961,215.94122355748397
-1066.3274410731494,293.7761620940893,183.3551722555613
-1282.5174753866,155.31807497973315,86.39351868375032
-999.81849051409,113.88088694916206,27.973976842244806
-1102.2724375806215,83.19222160472742,-32.3264315540985
-605.7817909275849,-20.211489142571626,89.27329924082129
-1523.4254307026356,371.9343506702085,-129.87513574972087
-765.3337276236024,281.8454824022475,-20.10034007535703
-657.8423824649601,107.1252670381833,5.646902866932134
-815.297782627095,132.64774413280784,124.86526999536031
-707.5749618881066,248.62414789963955,208.50443321623595
-646.2573865693179,322.4352862598339,295.51579795342957
-624.6445014352507,346.04681517133787,358.55363452351213
-553.9006694436939,393.1964534270113,500.74082382872854
-510.2945450281187,417.34333335032863,642.598644797153
-484.32033365114495,480.666690460045,823.3066337638237
-471.48720511081774,532.0981170940128,960.687900557275
-408.642094904988,610.1553537650473,1090.882207481658
-379.8228752938058,646.1635726777239,1248.1734333335035
-368.52645908643626,736.8245017411656,1444.264861089159
-315.55832011951077,674.3709625611193,1429.570750460147
-228.14314776197787,456.1190620650273,1329.5773786155314
-43.32906752050905,291.4563077095645,1250.4881891369632
120.01549968643727,309.89277684020544,1292.1130049507224
147.74260323352013,422.8640769273912,1402.038412709743
135.46420031305288,462.38929705862864,1484.135765016596
199.2668240428689,309.84485017819543,1356.1001973150874
366.88471598354187,188.33138737489358,1327.6195234866138
464.71221059179237,231.43887056232253,1474.1527432915423
675.635410665212,226.68087471256754,1559.7477222089094
369.2892068137438,254.46304293515115,938.8965650859367
-232.3464179918729,422.0534025380737,548.630776055024
-536.4125363911224,682.2441914415219,390.1383245042905
-568.2368596819506,610.8487607898722,597.9075423309694
-853.688058613288,396.71039549693324,629.6757812300838
-1036.133644006873,150.61310437305298,639.5466341717101
-1087.4457638439224,-177.5672630306986,671.2822421520092
-869.8250676836637,-152.61480729912867,1055.1411542167816
-736.0332019598947,202.36472189789583,1063.7985448649642
-723.8710466877069,533.5532521299324,901.9573452708112
-676.7142704185426,593.2239857647618,694.4573325243585
-574.4652863108198,337.08452937547486,696.8536656248567
-617.4361275257096,415.49968643726453,774.4377539730694
-607.903820366792,481.55078441669696,813.6040339973385
-547.1093594652609,333.1096755772869,709.0504912482857
-604.3307347565172,352.0152141658977,610.0136132114434
-435.344383658028,37.749690261200314,660.7006470099373
-627.2488566431963,296.30913716712644,849.2604508165379
-737.40472026635,607.5204070707123,940.7514288773435
-919.5443907960415,534.2884675194894,812.6822105408066
-792.2307821733212,296.77208832781844,756.5213401110472
-666.9198961928896,283.7390954097475,707.4220044561599
-557.1056375010835,239.9096531435302,662.1190722621895
-575.3483605512587,430.5445794435409,763.2433093869977
-534.2385014250535,229.07822752927865,768.4632366812317
-543.5923582467,368.7497769370785,803.1733568547874
-636.1050919529096,500.76121815298814,773.8697720424407
-648.2896809817828,315.3227656743129,793.9367673976333
-575.8571989415346,352.18346734103903,653.6105601811016
-671.1292847200625,330.0219748843897,687.5803663840354
-663.2866473260492,368.6161941131783,683.6422223695147
-544.888417553395,158.88504229272996,697.8978550269461
-590.1352653556517,442.4069381491132,778.6797734190576
-592.1257514033846,411.0129351001617,727.7357711348933
-541.9465362789537,287.0664294126945,756.3785798412302
-600.323250039514,380.05435087415174,719.8686605517685
-564.4588111128674,270.9528738152173,665.8287998450032
-500.0209041823661,259.5891563377912,749.2497437963016
-602.3759387762386,384.39732222522474,770.8432543223222
-499.3040436846426,278.08170986014596,655.0075713928815
-553.2908791483331,414.6523022642799,736.1545481892391
-609.7005603340591,322.7626151641999,794.4894535850674
-618.8249810077856,295.4332009401784,759.1236558865669
-612.4629715550163,323.06547087945427,825.8436877017127
-706.958033579255,418.82600072399856,635.7237180892558
-523.6181570668883,-27.129039988171293,683.1446008575815
-595.9078788373197,524.0515364574039,817.5646117685449
-587.3188091754065,488.4593617596223,739.3207670305355
-591.0336353392851,372.66752662733967,767.1284281584436
-630.6047427001066,380.42858672431464,735.1123982195755
-655.5877899180659,354.1035929700765,797.6210020751226
-660.7220610504097,307.46891140195686,770.2283654458964
-658.9671294478748,260.570123334676,719.3934727965209
-607.3358384361633,182.3344363263704,669.4110629011947
-526.9301953266406,127.51245328425101,666.8750286795186
-547.9934534219128,484.4987839884161,763.4707061024918
-553.2643665267957,457.13979799421827,728.163032228131
-562.4683250651344,321.6572427893318,712.783672303998
-592.6141954694009,322.0661489907359,731.9533173917699
-587.8878108222482,272.0511081765945,767.5149006031622
-579.5975180107376,155.2844243447049,697.390036352883
-523.359149148792,228.81819989496924,749.0039921889739
-562.3347422412343,418.23864418532327,696.7608714494756
-403.38647754329975,340.0202923526383,742.576720898574
-465.327099468218,538.3785492497439,803.7739697042314
-550.2664008606406,515.8203871862461,802.5778425864082
-574.7477477018147,380.4907894133063,790.8939342181072
-631.8936639933107,338.62124170843254,817.6512876466481
-570.2191879999797,193.26681384570676,626.7583731447539
-270.2482499120495,144.45197901424035,623.5676811143459
-416.6631826362724,747.1715621542526,831.2706173871812
-508.00018354891836,736.5869078635417,865.2597981981617
-529.5212942238176,299.7751525750384,889.9583445927
-572.835779802481,226.49426664559257,877.7829330097435
-526.73135066511,284.0317539628722,862.5810037066685
-349.8421989160417,107.78808257661893,779.4833097948842
-330.2075632351517,379.06114728271126,845.5813147201135
-360.46662213905876,615.017360668526,812.9351001616251
-316.3526790494206,602.541132802741,754.7684479409381
-282.3339264682639,591.5180005404496,849.5062024238655
-428.3542290180643,476.8947601882396,883.0273334930889
-420.0435418822942,310.92472964773907,934.7320440721347
-355.26912860151026,244.58199283139507,928.0763563500278
-317.8537013149241,298.0701870669393,885.2860049048351
-223.86339881610948,331.4954648121428,812.0132767050931
-170.79940652516407,463.15816308321394,871.2332957737863
-225.7661892695263,518.3819143132467,940.86665680941
-276.0330999882733,519.7228411333126,1046.0758770834077
-274.72276465459663,473.7081470226836,1093.3397235549348
-281.083754391153,388.1468187403446,1038.5911600801498
-120.45295794180481,207.948687880163,931.7177629465721
-63.38515191222284,83.73736189218542,936.9162762003335
32.45226453477997,76.14078202036374,1036.4905446814153
115.62766082199326,589.7141225596918,996.7593418751562
-27.41129743592359,467.11874085442025,1006.8045662892017
66.27166259629946,462.84307077340384,1043.5469808752225
45.235426980671285,288.76323719108973,1028.1186745728664
230.12649579621993,-33.22215027557831,1094.7673262531039
44.25221660811797,762.533586902765,791.0275170420073
-84.17114916918622,991.0519902311188,705.9158836095916
-150.33268241448405,898.7085294162634,705.2367526117482
-47.56700810164532,716.0753162394907,707.3914129697706
5.917545747018606,727.1280202719585,692.4566493144958
-27.374485680635086,808.8439987151577,715.230991215145
-12.011849102394805,646.5123156225623,747.4050771670245
62.81574237889596,507.323091983501,823.563602249494
139.17698704450552,464.0697893776163,813.078880147655
96.54285612314094,487.505927100488,800.5873565386753
-15.534152845263165,461.2543529135842,795.0727312588907
50.24651639448742,499.43558707611675,795.9292928777921
96.02341268424998,549.1661270668374,772.9000219238986
131.6575996900063,626.3759795648872,784.94694926402
183.60398301152793,734.5872443698919,816.7569965278665
199.80931306817314,750.1134434286938,836.5700825460276
195.43778966313678,734.5658303294194,824.7831828402157
194.67606165204225,645.550723233724,821.1478945409493
157.32385677066074,556.3255545981553,762.0196499314242
127.18818352852402,455.33082143239545,691.2656207777376
160.94282961051942,420.07413336868353,672.2672880137459
155.07232337240546,404.1502449868202,617.2882686748279
173.92789586658037,500.4451061269649,585.8493981125054
190.5115406382404,666.6812825990528,585.5363452351211
191.02751704200722,740.1875258115667,585.2967119250713
211.82157005705312,802.2117644659492,616.7957457439595
236.14180173657675,779.1631189040091,656.4841204692734
274.7044097627631,763.4248188729078,661.0391927926458
234.03506804056434,717.8404450041554,719.4536360530866
240.9252904916562,678.956626370881,703.9886199670632
241.19959415294724,601.7875625213503,727.8010329725239
232.39434465388285,567.8106183049258,814.1251089821703
200.13970112117798,564.8259089495393,884.2958604620335
172.58390989787543,585.1937205875605,974.0808532985271
132.19702956667163,496.2030866809767,938.4540082495042
186.06557794965664,387.63288176900375,959.2501006969762
178.68589171633536,414.8083188448655,962.9730845905586
110.08652292067119,465.7390648182611,973.5475417191398
75.89635604411293,439.0969393217868,992.7477782933012
70.29994952404746,326.69464088144275,965.5713215012264
69.72850055829464,264.7611569700153,961.8473178914309
61.177160396261726,222.12784182162105,946.1640825358304
59.62362274578985,175.39526749705558,910.9767351746011
65.31292541285761,159.3816440884502,856.1720873081022
8.473913109981494,155.21100477737048,772.9173570995192
2.246893689486216,204.85079002513604,694.1636542550209
29.57217806284511,370.7922685116732,670.4654494654139
53.45423768565209,478.9372517628344,670.458311451923
57.96107743215064,533.1382276312503,678.1928589273606
35.031024865779855,541.0889549438391,681.7465699295886
8.330734756517261,483.437259410706,701.1650257733273
25.053713551518616,475.9229706372717,740.6861670397129
11.739890788393591,464.9824353882315,803.3181565570303
-16.7430264157485,488.98043674445404,865.6044622781482
-45.90691010691725,474.18843335899624,916.2374511173541
-56.56712536900981,466.77917535549864,943.5750230710795
-59.819204315439016,397.44561088649033,975.1576736194318
-59.90159738544764,424.45891308448864,967.2161237527598
-12.978744015540476,443.58165122646375,983.5529972008791
63.736138232729836,431.3124257519133,976.8942503301332
116.18544559049217,372.59104791136633,946.4801945618536
135.01756461176856,349.16204820198544,938.9924184099567
123.75785818806627,314.5691953929222,954.63894398189
81.45207588728059,287.8842418155028,961.9441909316639
50.92421978963255,292.05895999143445,969.3228574487722
4.5184033283537195,327.13209913681027,956.7354805157726
-3.1081460029673744,396.72569124012796,944.612074459678
23.265845115304415,407.9527667450149,925.3465760478861
77.32263311120515,442.32026227101,922.1150953689588
68.68767621970807,484.6282879474643,886.5219009549643
71.3058995681502,469.8373042782194,965.1032717594695
40.641809384448315,473.97837181912274,968.5550111403996
-0.40991775988742335,470.77850234279805,1007.1971570311985
-39.16240510265993,459.4361989058446,1002.7297803021421
-50.394477216990516,409.40280319986954,1022.3572779695412
-81.52131461814179,367.0856000774985,1022.0309687813883
-73.89475508965856,297.49098825796784,1034.155394553696
-52.19152309912152,269.92398015632256,999.2494888672483
-57.81668561639297,230.89026323974042,956.1256902204118
-69.29552905426421,242.5853884863843,955.9146089643255
-93.31637205365747,250.2618121376821,928.0569817419813
-119.47199094492005,250.67581692015114,951.2116777900712
-168.44896065424996,255.2043766219861,981.8592485711227
-182.74436224398752,220.8470782581208,1021.0112525684104
-222.39602718563424,178.3840557172939,997.0091723473358
-233.1652501108942,174.80995039080625,1020.4096200027534
-282.71530033191766,156.0237185991139,1039.3559472398833
-282.3604390898014,167.6984495214982,1047.166973431294
-248.142841847114,178.90003212106075,1031.9426103715336
-160.1678452886562,162.60394732146045,1017.6176370116198
-83.45255515390068,131.024355921747,1014.9480199660435
-34.448053106820375,111.05525332300023,988.2773424156059
12.719940040686678,145.68685534815663,1008.4901571892544
4.793910254776096,192.0349966604294,992.516302712955
-18.818250880779882,219.1227381419751,972.4482876415494
-56.49992607057457,257.2570653587107,877.5647137401661
42.272947438727805,209.78519677973622,847.8073552130443
133.01178282084098,154.56654413076842,810.1064073868243
148.9448486486211,112.09740329266366,834.0360877567774
95.05060341706904,120.25105413163517,833.2009401783483
65.44926147053276,159.41631443969146,860.0979947280673
26.332437682592936,218.49255352235474,941.7303564418023
12.308076662264893,280.75030718950916,968.7824078558939
0.9096551829625816,361.979880999118,956.5631484757793
1.8625116630041862,439.457918861181,968.0900205472818
-4.8919559686539245,536.3034267563338,975.5115151453351
-28.531761610743736,578.8327308510042,951.4666068433156
4.94942717441736,582.12539450271,916.6351404404155
64.99579367062148,585.1080644256704,870.4287396817467
111.90059806355892,537.5780720225562,788.8748961164109
172.08526866972923,463.35700774474475,762.5550009432376
187.93675720047113,409.28145697052514,786.5224108130708
204.35928681048068,417.1383703915201,814.2138242926994
152.29257697582764,433.47524383963946,864.3991577144083
81.69313680002855,496.4875875043976,925.9227157082184
3.4147440767234483,544.1185318125966,991.3079390005763
-21.2059163934677,543.9207068672789,947.7691158550576
38.486129310212974,535.227626151642,893.747610040126
192.18897380858908,491.4481499798607,892.2731003961597
218.70159534601524,425.47149128397575,892.8930878536504
158.87586484681316,298.963458469508,970.9156541734437
40.86369963239231,292.52497030076535,1012.3406056094591
29.19457714917939,277.1384723631414,1012.2182396639017
36.737621919819716,292.4862210846722,1004.4296472291762
149.2772761340519,345.8877394421133,1017.7094114707879
174.28887540597455,298.84415167258953,971.1471297537896
-54.20831782514927,215.35080787016977,952.3078727190225
-189.18794899379503,200.91774459168016,950.33472184691
-224.98814579902412,216.35318890752708,914.4243956906794
-252.88860110231326,200.88103480801294,890.511030780134
-290.277515767362,189.88033630240707,925.3098662642187
-354.99584465643215,206.03162139976448,943.9094899889361
-422.09419118659287,180.1022775361617,1013.634625483728
-437.04425058506223,188.06116257845443,1025.1614975552304
-440.9252904916562,164.9125848276425,1029.0976021373253
-458.44707417925594,161.6372563515574,1079.8692723814963
-303.73471063003166,106.52465418873929,1109.8489290430475
-180.09310009024492,-60.4065608541143,1155.430243763161
-247.07213982348716,-191.5740849321634,1139.1759673282927
-467.78563525770784,-51.11694615388538,1076.5246032029288
-433.3284047049707,207.30626666598687,1017.2994855531707
-251.53645740390454,341.2449715244248,1011.7216378681813
-106.79589870139141,351.2759199114887,962.8354229018065
7.580947622276721,330.7653480036506,933.2208246445016
110.39855608184244,252.41647249570445,915.4023035389251
213.24407417415733,177.9364002997966,897.5715458387932
280.8614562567238,142.20656391326295,855.5337449587781
336.9998929297977,137.48119898232324,809.2947132812939
366.2178215802543,179.32015520080762,754.6471017115937
336.3166830671025,233.8566177032932,769.7134087583427
326.1450138426476,296.08479960027125,796.8235839965738
277.7676372665488,347.10732003283493,835.1730713342479
264.56027287605866,448.189748792911,877.8053667664291
241.49123298985896,571.9618830079589,853.4943125328223
223.80323555954382,699.9495240474577,872.4202454456926
154.9836080618764,835.7879602106734,859.1578163797016
86.60174473444042,898.3597864714252,873.6204514283676
73.32646724416595,751.2667424655718,854.2947897600098
94.94934559712034,654.1652858009617,831.3980819138036
52.37211484043991,569.4829528942096,842.8199232153693
25.12641931750394,511.69461538853744,846.531690230609
-4.526846578597177,427.26517210260386,897.392075785309
11.678707815614917,384.86435225076866,929.175610427618
-26.254531363921423,315.7979534295606,960.2371859911387
-41.50397944252115,281.2010217556454,971.8996803189673
-33.386834443974244,223.31581120974033,995.7640988512898
-37.73092748288152,211.63700142250414,983.9639428347092
-53.08999505437637,200.18456863454904,987.6971238904214
-18.763492120142967,207.5509985571016,976.4129442776077
3.075321338071615,218.63633350838464,937.456725793212
41.1736933611376,214.36780144085904,926.2673797882051
34.284490626258716,233.94227386518335,945.721525699398
25.922613736597107,257.0082546027441,921.9702956667161
23.267884547730368,311.4060357002647,945.2952843223732
12.30685300280932,338.67834581635935,956.8129789479589
28.10174728373094,373.4119194628135,960.8571734486294
35.75390168915991,384.9245155073344,957.0077447446376
39.08878159208293,407.9364512856073,937.357813320553
30.727720475391703,392.3837396052679,921.5858626544234
53.602504423019084,415.3151178027155,910.0773454747546
25.919758531200774,392.17469778160745,894.0423080256766
29.664054493634428,395.9792589722281,890.1612681190826
11.951379930965214,384.9326732370382,937.0284449837611
27.256096628308345,388.6474994009168,933.3207568333734
22.885185052999752,353.79054009269225,925.5229869527312
7.962413260389635,346.3088822380732,941.0236931062086
30.919631066674146,342.22797795373555,937.456725793212
22.640147247021158,338.281676209511,921.6470456272021
30.347060413087043,338.2225326691582,921.7632932754816
30.237848806677107,342.0566656299552,917.8241295447478
26.49314495775826,357.5614506482846,917.7150199099592
25.511158244660514,372.7623602351466,886.2526958747382
34.17252578607374,372.9428500048437,913.8543743276248
22.33902504932877,392.2725905380533,901.8380384738929
34.117359138951635,403.82393579866726,905.8995681501839
45.95035001759011,403.80252175819476,913.9257544625332
35.01695278204076,415.6353086935906,929.4213620349457
49.42197386467347,407.53978167875886,902.1918799997961
23.5390270887612,388.71174152233436,937.1895601454116
30.509807120678317,380.74367903412485,917.6976847343385
53.49421056120083,380.5315780618254,914.117461110573
37.780791605696145,357.40339463527306,910.0355371100225
45.733252435847106,353.5437687691516,918.0168559090007
30.755660699627295,357.63385049940604,929.5529054264199
30.04675398836504,353.59475457980045,909.9325457725116
31.13754442138753,353.86803852487856,941.3449037132966
15.341834367495528,357.7531572963245,929.321429846074
26.92937955367022,361.5322255816207,929.4825450077244
38.707713643293076,373.0835708422347,933.5440746840155
22.25744775229054,380.66618060193855,901.8757679737729
46.087195933371746,384.52784590048594,921.842831140094
26.328868675847513,392.2766694029052,905.8220697179976
30.073164638281167,396.08225030973887,901.9410298114036
34.66270336965223,403.9605777712063,921.606256978683
22.61169716467907,392.34091152432285,909.6908730300358
30.155455736668486,369.06894811174055,909.8825796780757
42.615572086288395,380.7916056961348,933.5767056028309
38.298705470267635,372.98159922093686,921.7653327079074
23.484982129473373,361.66478868930784,941.2041828759058
22.394191696450882,361.39150474422974,909.7918249351206
22.803199869476327,361.49347636552756,921.5715866274418
27.09294203423188,365.43569924490015,933.3962158331337
38.46216597920799,376.8840531680034,925.6790035333167
19.494832588090734,380.97005603340597,933.2300020904182
26.928971667185028,380.84157179057075,925.4923954663418
30.83683011018034,388.5496066444709,925.525026385157
34.47201643782536,396.1893205121015,917.7048227478294
37.94353831328742,399.92556071645265,905.9699285688794
26.301642252961006,388.40888580707997,905.8343063125534
34.144891476702036,388.3833929017555,909.8764613807979
42.479236028613236,380.7569353448936,929.6507981828657
18.540378212743395,380.7304227233561,905.7445712858113
39.06196305568161,384.758301764619,941.3601994564914
38.32582992153284,376.84938281676216,921.7520763971389
42.397250845089815,388.4608913339418,925.6983781413633
31.35504988961572,384.81744530497167,941.2439518082118
26.465612620007857,373.00199354519646,913.7381266793453
22.36655738707918,376.8320476411415,905.8149317045068
37.94394619977261,380.6162145075026,909.960078110262
30.182682159555,372.9377514237788,909.869323367307
30.67326762961868,384.64715269740435,921.6113555597478
22.93882212580239,400.1468391346689,917.5182146808545
29.800390551309576,396.01392932346937,894.0871755390476
23.293479424676114,392.51222384810313,929.3234692784999
18.64907996104684,396.2056359715092,905.6935854751623
30.427821937154896,388.4466153069601,913.745264692836
30.509399234193125,400.0530252430749,913.7075351929559
41.68783427572107,403.7301219070733,902.0888886622854
33.95420454487517,380.6111159264377,905.9760468661572
34.41797147853753,369.14236767907494,921.7194454783236
23.321113734047817,377.07168095119135,933.3003625091138
41.688242162206265,384.4207756981233,906.079038203668
26.656299551834728,380.7732508043012,917.6395609101988
30.64614317835347,380.77834938536614,921.6235921543037
30.40059551426838,384.57883171113485,913.7585210036049
38.57096969913273,392.3592664161564,925.628017722668
30.263851570108045,403.8535075688436,905.8424640422571
23.10238460636405,404.0503127979484,921.4329052224767
18.867401202245418,388.53635033370216,913.5719129366298
26.192430646551067,392.24301876787695,901.8951425818195
30.209500695956322,396.11590094476713,905.8669372313686
42.3424920844529,400.03263091881536,921.7337215053052
45.81401395991496,403.7688711231665,909.9998470425681
22.393375923480498,400.0101971621298,901.8125455685683
29.773266100044363,392.14512601143105,894.1004318498162
34.71705424380395,411.6981843952828,921.5807640733585
27.664696914848598,408.05983694737756,941.1103689843117
34.82667373669908,388.5536855093228,929.509057629262
23.266253001789604,388.64342053606487,929.3357058730558
38.05315780618255,376.7810618304926,913.8992418409957
33.90015958558733,353.56416309341114,909.9906695966513
42.31567354805158,376.854481397827,925.7361076412435
25.756196050639108,388.27122411832795,890.1286372002672
41.606358950304134,392.12371197095854,902.1266181621656
33.70824899430489,403.72094446115653,894.1198064578628
30.345836753631467,396.15057129600837,909.7938643675466
26.219657069437577,396.1118220799152,901.8829059872638
30.37306317651798,400.01937460804663,909.781627772991
15.832113922695317,388.77088506268706,937.0733124971322
34.144891476702036,388.3833929017555,909.8764613807979
26.655891665349536,400.08259701325125,913.6494113688161
26.51996349415958,380.73960016927293,913.7126337740208
15.313894143259933,392.50304640218627,921.3543870740773
18.567502664008607,384.5992260353944,905.7313149750426
30.127923398918085,384.50949100865233,905.9046667312488
34.96260190788904,407.89770206951414,929.4458352240573
30.700086166020004,407.82530221839266,917.6089694238095
26.956198090071535,384.710375102609,925.4801588717861
34.33568038015021,396.1546501608603,913.7778956116514
34.79944731381257,384.6859019134975,929.5223139400307
30.782479236028617,380.81200002039435,925.5505192904815
34.96260190788904,407.89770206951414,929.4458352240573
27.065001809996282,400.18558835076203,925.4291730611371
46.35946016223686,403.90551309570554,925.7055161548542
26.41034400126445,403.88307933902,905.7843402181173
30.481764924821427,415.49356813998673,909.730641962342
27.010141077738066,411.75732793563554,921.464516425079
27.092126261261495,404.0543916628003,925.4169364665815
34.5535937348636,407.7947107320033,917.6670932479492
38.10710079384908,403.8280146635192,909.8846191105016
42.151295294519535,411.56970015244764,913.8431574492821
38.598196122019246,396.2280697281947,925.6157811281122
34.06249840669342,415.39567538354083,901.9349115141258
18.29442266217312,403.8402512580749,893.8893505937298
49.449200287559975,411.40756527458416,902.1786236890275
54.44784916357778,419.3888840735624,933.6236125486279
22.638515701080394,415.5190610453111,905.6884868940974
6.352179388476188,407.6957982593445,881.9229808344338
26.437570424150962,407.7518826510582,905.7710839073487
27.20133786767143,400.22025870200326,929.3561001973152
30.318610330744956,392.2817679839701,909.8061009621024
22.693682348202497,384.63797525148755,913.6422733553254
34.362804831415424,400.02345347289855,913.7656590170956
29.691280916520935,399.84806228426635,890.1480118083138
33.7630077549418,392.14920487628297,898.084463093921
22.311390739957073,407.7131334349651,897.8601255270659
22.802078181642052,419.42253470859066,909.6021577195067
26.08291312527724,415.38649793762403,893.9668490259161
26.573906481826114,407.7865530022995,909.6980110435267
22.038718624606776,407.6448124486956,890.0072909709229
49.55830992234862,407.5734323137871,906.1188071359742
22.202281105168435,411.54828611197513,893.9209617963322
30.48217281130662,396.18422193103663,913.7207915037246
34.25369519662678,403.85758643369553,909.8264952863619
30.345428867146275,415.45991750495847,905.803714826164
30.37306317651798,400.01937460804663,909.781627772991
26.737876848872965,392.379660740416,917.6018314103186
26.87380502006292,411.7236773006073,917.538609005114
19.112948866330502,384.73586800793345,921.4380038035416
30.34624464011666,376.8412250870583,913.7829941927163
41.4971473438942,395.95886464796854,898.1874544314319
42.20605405515646,399.99796056757407,917.8078140853402
34.199242350853766,396.120999525832,909.8519881916862
23.129509057629264,407.91911610998665,921.419648911708
25.81024100992694,415.3181769513545,886.1129947535602
18.866993315760226,407.8456965426522,909.5827831114601
29.963953031871235,399.91638327053585,898.0018660806699
30.318202444259764,411.5911141929202,905.8169711369327
18.29442266217312,403.8402512580749,893.8893505937298
42.151295294519535,411.56970015244764,913.8431574492821
41.57831675444724,426.8736010768204,894.159575390169
46.08638016040136,423.1465383183861,913.8635517735415
30.645735291868277,400.08769559431613,917.634462329134
26.901439329434623,396.2831344036955,921.5155022357279
14.986769182136612,384.6971187918403,913.5270454232589
33.681022571418374,399.8521411491182,894.1330627686316
37.72562495857404,388.28550014530964,902.0817506487945
33.54468651374323,399.81849051408994,890.2061356324535
34.38962336781674,423.20160299388687,909.7632728811573
30.508991347707934,419.36237145202495,909.7184053677863
26.60072501822743,430.9647025232878,905.6956249075884
38.02470772384046,430.8413168615175,901.9420495276165
34.744280666690464,415.56698770732106,921.5675077625898
26.491921298302685,415.48948927513476,905.7466107182371
42.09653653388263,423.1424594535341,909.8785008132238
20.039768932306142,400.41604421489507,944.9465413775347
27.50123640590824,404.15738300031103,937.1966981589024
22.775667531725922,376.9350389786523,917.5946933968278
26.492329184787877,396.18014306618477,909.7357405434069
38.24343685152422,403.8626850147604,913.8105265304667
30.48217281130662,396.18422193103663,913.7207915037246
22.393375923480498,400.0101971621298,901.8125455685683
33.73506753070621,426.8990939821448,890.1174203219246
26.164898308800662,407.6835616647887,897.9182493512056
26.491921298302685,415.48948927513476,905.7466107182371
46.22271621807652,423.18120866962727,917.7894591935064
22.17505468228192,407.6794827999368,893.934218107101
30.618100982496575,415.5282384912279,913.6575690985201
38.57056181264754,411.6686126251065,921.6388878974983
26.84668056879771,407.85487398856907,917.5508455996699
37.80720225561227,399.8908903652114,902.0440211489145
30.40059551426838,384.57883171113485,913.7585210036049
49.04009014291323,411.30559365328634,890.3998817129194
41.79663799564582,419.20533515522635,902.0379028516364
49.85820846058542,411.5105566120949,913.9583853813485
18.348773536324842,411.5778578821514,893.8638576884055
38.843233927997844,411.73693361137595,929.4917224536413
30.618100982496575,415.5282384912279,913.6575690985201
30.427414050669704,407.75698123212317,909.7561348676663
26.110139548163747,419.25530124966224,893.9535927151476
42.01495923684439,411.53604951741937,909.9162303131039
26.410038086400558,423.19242554797006,901.7941906767347
34.98982833077555,411.76650538155235,929.4335986295015
22.993172999954115,407.88444575874536,917.49272177553
42.042185659730904,415.40485282945764,909.9039937185481
45.54134184456466,403.700550136897,902.1470124864251
15.231908959736508,400.2070023912346,917.402986748788
26.464796847037473,411.62068596309655,905.7588473127929
26.437570424150962,407.7518826510582,905.7710839073487
30.536523685458338,403.92182855511317,913.6952985984002
29.93672660898472,396.04757995849764,898.0141026752256
26.219249182952385,415.4211682888652,897.8927564458812
37.643333860186715,415.29778262709493,894.1402007821225
34.22606088725508,419.2991490468203,905.849602055748
38.13432721673559,407.69681797555745,909.871362799733
41.93297405332096,419.2389857902546,905.9648299878145
19.084906670473607,419.4857571137952,913.470961031545
34.08972482957993,419.26447869557904,901.92267491957
18.485517480485182,392.3021623082297,901.779914649753
26.601540791197813,392.34601010538773,913.6749042741405
30.700086166020004,407.82530221839266,917.6089694238095
22.693274461717305,403.9473214604376,909.6531435301557
18.94857061279846,419.45210647876695,909.544033895367
30.590976531231362,411.6594351791897,913.6698056930757
18.32164908505963,407.7090545701132,893.8760942829613
34.22606088725508,419.2991490468203,905.849602055748
29.88196784834781,407.61931954337115,894.0494460391675
34.5535937348636,407.7947107320033,917.6670932479492
22.72050088460382,407.81612477247586,909.6398872193869
42.205646168671265,419.3073067765242,913.8176645439574
29.63652215588402,411.41980186913986,886.1843748884687
22.856836942278964,407.8497754075041,913.5668143555649
30.89087506946817,415.59655947749746,921.510403654663
22.829610519392457,403.9819918116789,913.5790509501206
26.62835932759913,415.52415962637605,909.6725181382022
30.454538501934916,411.62476482794847,909.7428785568978
37.91600597553701,415.36610361336443,901.9930353382655
34.30804607077851,411.59519305777206,909.8010023810375
30.37265529003279,419.3287208169967,905.7914782316083
38.05234203321216,415.39975424839275,905.9199624744435
26.137671885914155,403.81475835275046,897.9304859457615
37.479771379625056,411.3943089638154,890.2265299567132
33.84417716549485,423.06496102134787,894.0565840526582
38.07956845609868,419.268557560431,905.9067061636748
26.791819836539496,419.4266135734426,913.5861889636116
49.14889386283798,426.7808069014394,890.3488959022704
41.960200476207476,423.1077891022928,905.9525933932587
30.754437040171723,415.5618891262562,917.583476518485
26.24688349232409,399.9806253919535,901.870669392708
22.638515701080394,415.5190610453111,905.6884868940974
29.77285821355917,411.4544722203811,890.1102823084336
26.491921298302685,415.48948927513476,905.7466107182371
18.676306383933355,400.0744392835474,905.6813488806067
38.570153926162355,430.9779588340565,917.6487383561156
29.963545145386043,419.22572947948595,894.0117165392872
34.44397424196847,430.9392096179634,909.737779975833
22.28385840220667,423.1536763318769,893.883232296452
38.35183268496378,438.64724447186353,909.7704108946481
30.072348865310786,434.7009427276389,893.9607307286383
33.625855924296275,430.7342466591548,886.1782565911908
34.52595942549189,423.2362733451281,913.6891803011222
37.397378309616435,438.40761116181375,882.284980090041
26.5191477211892,419.358292587173,905.7333544074686
22.44772679763222,407.74780378620636,901.7870526632439
37.67045831145193,419.1665859391332,894.1269444713538
45.62291914160289,415.30696007301174,902.1082632703319
30.42700616418451,427.0663274410732,905.7659853262837
19.030147909836696,431.0585164148818,909.5063043954868
26.43716253766577,427.0612288600083,901.781954082179
14.740405745081144,427.1162935355091,897.6816751897948
19.084906670473607,419.4857571137952,913.470961031545
38.62450480031408,438.7155654581331,917.6232454507913
45.86846680568798,411.50647774724297,909.9743541372437
26.382811663514044,419.3236222359318,901.8074469875035
30.508991347707934,419.36237145202495,909.7184053677863
18.266788352801417,419.2807941549867,889.911437646903
30.04553032890947,411.52279320665065,897.9631168645767
33.789826291343125,415.3273543972713,894.0820769579827
18.48510959399999,411.6115085171797,897.7897651083704
30.317794557774576,430.90046040187025,901.8268215955501
14.95872698627972,419.44802761391514,905.5600026512622
29.963545145386043,419.22572947948595,894.0117165392872
26.682710201750858,423.26074653423956,909.6470252328779
23.10197671987886,423.3596590068984,917.4427556810941
30.099881203061194,419.2603998307271,897.9386436754653
30.618100982496575,415.5282384912279,913.6575690985201
29.581253537140615,442.30190737917644,878.2295687110278
14.931602535014507,415.5792243018769,905.572239245818
38.24262107855384,442.48137743266057,905.8312471639143
33.92575446253308,434.6713709574626,894.018854552778
34.00773964605651,426.96741496841435,897.9702548780675
40.8965344944502,426.70330846925305,874.526979141705
30.017896019537766,426.9633361035624,893.9862236339628
30.618100982496575,415.5282384912279,913.6575690985201
29.581661423625807,422.99154145401343,882.2197182524104
38.32501414856246,415.4690949508753,913.7727970305865
49.77581539057681,438.52385881009315,906.0168355146764
41.55109033156073,423.0058174809951,894.1728317009379
29.527310549474084,415.25495454614986,882.245211157735
34.035373955428206,411.52687207150257,901.9481678248945
33.4351689924694,422.9619696838371,882.2768223603372
29.663238720664044,434.5979513901282,882.1809690363173
37.39778619610163,419.0982649528637,886.2741099152107
26.191716845201984,430.8617111857771,893.9158632152673
34.580310299643614,430.97286025299167,913.6647071120108
26.35517735414235,434.76518484905654,897.8295340406767
22.392968036995306,419.3195433710799,897.8223960271857
37.96994896320355,442.413056446391,897.9784126077714
22.502179643405242,415.48541041028284,901.7615597579196
29.990771568272553,423.09453279152416,893.9994799447314
33.84417716549485,423.06496102134787,894.0565840526582
26.137263999428964,423.1241045617005,893.9413561205918
33.46229344373461,426.83077299587535,882.2645857657816
38.16114575313691,430.87496749654576,905.8689766637946
18.212437478649694,411.54318753091013,889.9369305522274
26.00092794175381,423.09045392667224,890.0144289844137
34.74387278020527,434.87633391627116,917.5783779374201
29.96313725890085,438.53507568843594,890.0215669979046
22.33820927635839,430.8912829559534,893.8577393911277
22.01108431523507,423.08535534560735,886.030397740309
41.82345653204714,442.38348467621466,898.0355167156981
29.827209087710894,419.1920788444577,890.0847894031092
26.218841296467193,434.7305144978153,893.9036266207115
30.1271076259477,423.1292031427654,897.9253873646966
26.2464756058389,419.2899716009035,897.8805198513254
38.18827020440212,434.743770808584,905.8567400692388
41.46910514803731,430.70875375383036,890.2204116594352
22.420194459881817,423.18834668311814,897.81015943263
25.48270816231843,426.8215955499585,874.2955035613589
37.50648794440507,434.57245848480375,886.2241438207748
53.43863602759353,430.72201006459903,902.1735251079626
19.302820025186993,431.12683740115125,917.3591389516298
22.9384142393172,419.4561853436189,913.5290848556848
29.8544355105974,423.0608821564959,890.0725528085536
26.028154364640326,426.9592572387105,890.002192389858
22.14752234453152,423.12002569684864,889.9573248764868
41.7418792350089,430.77707474009986,898.0732462155784
26.028154364640326,426.9592572387105,890.002192389858
33.76219198197142,430.76789729418306,890.1051837273687
22.74721744938384,430.9942742934642,905.6375010834487
14.658930419664209,415.50988359939436,897.719404689675
41.71465281212239,426.9082714280616,898.086502526347
38.18827020440212,434.743770808584,905.8567400692388
41.60554317733376,430.74240438885863,894.1473387956132
34.19852854950467,434.73969194373217,901.8716891089211
41.52355799381033,438.4463603779069,890.1949187541109
29.936012807635638,434.6662723763977,890.0348233086734
36.87956641666625,422.8294065761499,870.5551844921558
38.24302896503903,423.17203122371046,909.821396705297
30.181458500099424,430.86579005062896,897.899894459372
26.27319217061892,442.46812112189184,893.8781337153871
33.325957386059464,426.7971223608471,878.3376586296035
41.65989405148548,438.48001101293517,894.1218458902889
38.733716406724014,434.880412781123,921.5624091815249
41.796230109160625,438.51468136417645,898.048773026467
22.802078181642052,419.42253470859066,909.6021577195067
22.556122631071776,442.5323632433094,897.7469370274255
22.31098285347188,427.0224796439152,893.8709957018962
22.720092998118627,427.1254709814259,905.6507573942172
30.181458500099424,430.86579005062896,897.899894459372
30.42700616418451,427.0663274410732,905.7659853262837
37.99758327257525,426.97251354947923,901.9553058383852
42.15088740803434,430.88006607761065,909.8530079078994
22.55653051755697,423.22301703435943,901.736066852595
37.64292597370152,434.607128836045,890.1500512407398
26.846272682312517,427.16422019751906,913.5617157745002
25.837365461192153,419.1869802633928,886.1007581590044
30.017896019537766,426.9633361035624,893.9862236339628
22.528896208185262,438.6635599312712,897.7591736219811
26.218841296467193,434.7305144978153,893.9036266207115
38.84241815502746,450.3556260292761,921.5124430870889
23.183554016917096,434.96504922680026,917.4050261812139
30.208684922985938,434.73459336266717,897.8876578648163
37.94282451193833,438.54425313435274,897.9906492023271
49.421158091703084,446.158474096659,894.2126006332439
18.02134266033763,423.08127648075543,882.0463664962042
49.25800349762662,422.9456542244294,894.2880596330043
33.162496877119096,422.8936486975675,874.4239878041942
26.60072501822743,430.9647025232878,905.6956249075884
30.69927039304962,446.44399463629276,909.6296900572572
45.56775249448079,446.1880458668353,894.1544768091042
30.23580937425115,438.6033966747055,897.8754212702605
30.12669973946251,442.4385493517155,893.9362575395269
26.27319217061892,442.46812112189184,893.8781337153871
40.97811179148843,438.30971840536785,874.4892496418248
22.33820927635839,430.8912829559534,893.8577393911277
30.617693096011383,434.837584700178,909.6674195571374
30.53570791248796,442.54052097301326,905.714999515635
30.017896019537766,426.9633361035624,893.9862236339628
18.866585429275034,427.15504275160225,905.5926335700775
30.86324076009647,431.03710237440924,917.5324907078361
18.511928130401312,434.789658038168,893.7873789724321
34.06209052020823,434.7050215924909,897.945781688956
29.636114269398828,430.7291480780899,882.194225347086
26.655075892379152,438.70230914736436,905.6701320022638
30.04512244242428,430.8321394156007,893.973987039407
42.17811383092086,434.74784967343595,909.8407713133436
45.104291475682324,438.34744790524803,882.4002080221076
22.17423890931154,446.2981752178369,885.9539190243356
18.621139736811248,430.955525077371,897.7265427031658
34.36198905844504,438.64214589079864,905.7863796505434
34.00773964605651,426.96741496841435,897.9702548780675
36.87915853018106,442.13977250131296,866.5660546669864
30.23580937425115,438.6033966747055,897.8754212702605
10.477890003212107,427.0438936843877,885.8437896733341
26.32805290287713,430.89638153701827,897.8427903514454
33.51674628950764,434.5683796199518,882.2390928604569
23.047115987620646,434.931398591772,913.4780990450358
22.501771756920053,434.79475661923294,897.7724299327499
34.71634044245487,450.31687681318294,913.6014847068062
41.68712047437199,442.3488143249734,894.1096092957331
34.00773964605651,426.96741496841435,897.9702548780675
25.755074362804834,446.20028246139105,878.1592082923324
32.998526510072246,438.30054095945104,866.5201674374023
14.740405745081144,427.1162935355091,897.6816751897948
34.498325116120185,438.6768162420399,909.7122870705083
22.119888035159818,438.5605685937604,885.97941192966
34.22565300076989,438.6084952557704,901.8594525143653
37.697276847853246,442.34473546012157,890.1245583354153
34.19852854950467,434.73969194373217,901.8716891089211
37.96994896320355,442.413056446391,897.9784126077714
34.389215481331554,442.5109492028369,905.7731233397747
29.96313725890085,438.53507568843594,890.0215669979046
2.825796780755916,415.5312976398669,889.6932183773256
25.973395604003407,438.530996823584,886.0375357537998
41.68712047437199,442.3488143249734,894.1096092957331
33.81664482774444,438.50550391825965,890.0796908220443
26.35517735414235,434.76518484905654,897.8295340406767
26.81863837294081,442.60476309443084,909.5838028276731
14.821983042119381,438.72270347162384,897.6439456899146
37.58806524144331,446.1788684209185,886.1853946046816
22.665742123966904,419.38786435734943,905.6752305833288
29.745223904187466,426.8950151172929,886.1333890778197
30.69927039304962,446.44399463629276,909.6296900572572
19.084498783988415,438.7951033227454,909.4808114901624
26.57309070885573,446.4052454201996,901.7187316769745
22.283450515721476,442.46404225703986,889.8941024712823
41.14167427205009,442.2121723524344,878.4029204672341
29.908786384749128,430.79746906435946,890.047059903229
33.65349023366797,415.29268404603005,890.1551498218047
26.846272682312517,427.16422019751906,913.5617157745002
18.075693534489353,430.818883104832,882.0208735908798
15.040304283317953,431.0534178338169,905.5222731513821
34.170894240132974,450.18023484064395,897.8947958783071
30.072348865310786,434.7009427276389,893.9607307286383
34.389215481331554,442.5109492028369,905.7731233397747
30.23580937425115,438.6033966747055,897.8754212702605
29.88115207537743,446.2390316774842,886.0701666726151
29.554129085875406,438.4331040671381,878.2418053055836
18.403226382097863,419.31546450622795,893.838364783081
30.23580937425115,438.6033966747055,897.8754212702605
21.95632555459816,434.65811464669395,882.0657411042507
30.45423258707102,430.9351307531114,905.7537487317281
34.498325116120185,438.6768162420399,909.7122870705083
45.594876945746,450.05684917887356,894.1422402145483
15.067122819719273,454.2315673548052,901.5198870154437
33.27119862542255,438.3688619457206,874.3740217097584
41.68712047437199,442.3488143249734,894.1096092957331
41.14167427205009,442.2121723524344,878.4029204672341
26.90062355646424,434.9018268215956,913.5362228691755
21.98355197748467,438.52691795873216,882.0535045096951
30.15433404883421,426.9980064548037,897.9131507701408
25.946169181116897,434.66219351154575,886.0497723483556
33.78941840485793,434.6367006062214,890.0919274166001
45.81319818694458,442.3875635410665,902.020567676016
23.12869328465888,446.53780852788674,913.4403695451556
41.768697771410224,453.95522426108823,894.0718797958529
26.327645016391944,450.2057277459683,893.8526408100628
14.740099830217254,446.42563974445915,893.6915256484122
22.665334237481712,438.6972105662995,901.6861007581591
34.36198905844504,438.64214589079864,905.7863796505434
17.857780179775972,419.1788225336889,878.131675954582
30.23580937425115,438.6033966747055,897.8754212702605
22.474545334033543,430.9259533071946,897.7846665273055
37.697276847853246,442.34473546012157,890.1245583354153
25.946169181116897,434.66219351154575,886.0497723483556
26.409630199915366,442.5017717569201,897.804041135352
29.499676240102385,430.69549744306164,878.2672982109079
29.936012807635638,434.6662723763977,890.0348233086734
25.83695757470696,438.4963264723428,882.1106086176219
30.53570791248796,442.54052097301326,905.714999515635
30.208684922985938,434.73459336266717,897.8876578648163
29.799574778339192,434.63262174136946,886.1078961724953
30.9448180571347,442.643512310524,917.494761207956
19.330046448073503,434.99564071318963,917.3469023570742
41.38722193613518,438.4116900266656,886.2690113341458
29.69046514355055,438.4667547021665,882.1687324417617
25.973395604003407,438.530996823584,886.0375357537998
33.73465964422102,446.2084401910949,886.1282904967549
25.80983312344175,434.6275231603046,882.1238649283905
37.42460473250295,442.27641447385196,882.2717237792723
37.77926203137667,434.64077947107324,894.0769783769177
30.072348865310786,434.7009427276389,893.9607307286383
38.488168742638926,438.6808951068918,913.6973380308261
37.61569955081501,430.7383255240067,890.1633075515086
33.29842504830906,442.23766525775886,874.3607653989897
34.034966068943014,430.8362182804526,897.9580182835118
34.007331759571315,446.2767611773644,893.9811250528978
22.692458688746925,442.5660138783377,901.6728444473904
26.027746478155134,446.2686034476606,886.0120428484754
27.009427276388983,450.3760203535357,913.4852370585268
45.076657166310625,453.7890105183728,878.4233147914937
41.19602514620182,449.94977897651086,878.3774275619096
33.46198752887072,446.14011920482534,878.2744362243989
41.90503382908537,453.9888748961165,897.997787215818
18.566279004553035,442.5272646622446,893.7629057833207
18.566279004553035,442.5272646622446,893.7629057833207
22.474545334033543,430.9259533071946,897.7846665273055
37.997175386090056,446.2818597584293,897.9651562970026
21.51968307220101,449.99566620609494,866.3090861813158
25.536651149984962,453.868548382985,870.2808808308648
21.901566793961244,446.22985423156734,878.1010844681927
26.27319217061892,442.46812112189184,893.8781337153871
41.9870190126088,446.2859386232812,901.9502072573204
30.72690470242132,431.003451739381,913.6065832878711
49.14848597635279,446.09015311038945,886.3587463608878
30.481357038336238,434.8029143489367,905.7404924209593
21.765638622771284,426.8858376713761,878.1643068733973
44.44973563857179,442.045958609719,862.7543554628747
17.666277474978717,450.0252379762713,866.2509623571761
22.17423890931154,446.2981752178369,885.9539190243356
22.6104735052235,450.268950151173,897.7214441221009
41.74147134852371,450.08642094904997,894.0841163904087
30.235503459387257,457.91274288365554,893.8852717288779
45.04953271504541,449.9202072063345,878.4355513860493
29.553721199390214,457.7424502760882,874.2526754804138
29.635706382913643,450.03849428703995,878.2040758057034
21.92879321684775,450.0986575436057,878.0888478736368
33.62544803781108,450.0435928681049,882.1891267660211
17.69340192624393,453.8940412883095,866.2387257626203
18.21121381919412,469.47224587397335,877.9675016442926
26.327237129906752,469.5150739549184,889.8624912686801
18.647856301591272,454.13367459835933,893.7241565672275
33.57068927717417,461.6153324529784,878.2244701299629
49.557086262893044,465.50147094063726,894.1493782280393
30.18064272712904,469.485502184742,889.9206150928198
30.371839517062405,457.94741323489677,897.812198865056
33.32514161308908,465.4158147787471,870.3583792630511
33.59832358654587,446.17478955606657,882.2013633605768
49.039274369942845,449.9242860711865,882.4195826301541
29.96313725890085,438.53507568843594,890.0215669979046
52.92000836167295,453.7635176130484,882.4654698597382
30.26303579713766,442.47219998674376,897.8621649594919
21.71087986213437,438.4575772562497,874.199650237339
22.50136387043486,454.104102828183,893.7822803913672
21.983144090999478,457.8362641676822,878.0633549683125
33.70702533484931,461.65000280421964,882.150377549928
22.255816206349778,457.90458515395164,885.9161895244555
45.867243146232404,469.43451637409316,898.0049252293087
37.996767499604864,465.59120596737927,893.9760264718329
30.644511632412705,458.0157342211663,905.6650334211989
45.5673446079956,465.49739207578534,890.1643272677215
29.308173535305126,461.54293260185693,866.3865846135021
37.64251808721633,453.91647504499497,886.1609214155701
50.21174407162487,461.8039799523793,913.794211071059
18.457169369764397,446.36241733925453,889.8227223363739
45.37655570454743,457.7261348166806,886.2639127530811
29.799166891854,453.94196795031945,882.1177466311127
37.833205019043206,461.6877323040998,890.0613359302107
21.60126036923924,461.6020761422097,866.2713566814357
41.74106346203852,469.395767158,890.0939668490261
45.322204830395705,449.98852819260406,886.2883859421925
26.27319217061892,442.46812112189184,893.8781337153871
33.843769279009656,442.37430723029786,890.0674542274885
33.08010380711048,449.9069508955658,866.482437937522
41.65948616500029,457.78935722188515,890.1316963489062
33.32554949957427,446.1064685697971,874.3485288044338
37.67005042496674,438.4759321480832,890.137814646184
22.20146533219805,450.16697852987517,885.9416824297798
18.620731850326056,450.26487128632107,893.7374128779962
25.809425236956557,453.93686936925457,878.1337153870078
29.85402762411221,442.37022836544594,886.0824032671709
41.441164923801715,465.4586428596922,882.2533688874387
49.52996181162783,461.63266762859905,894.161614822595
26.163674649345086,465.61160029163887,885.9488204432708
26.65466800589396,458.01165535631435,901.6810021770942
29.554129085875406,438.4331040671381,878.2418053055836
37.39697042313124,457.71695737076374,878.2948305486584
29.30858142179032,442.232566676694,870.3767341548847
33.32554949957427,446.1064685697971,874.3485288044338
41.468799233173414,450.0180999627804,886.2312818342657
33.925346576047886,453.9807171664126,890.0287050113953
26.245659832868515,457.9086640188036,889.9012404847732
25.481892389348047,465.4413076840716,866.3162241948068
36.9879622501058,457.613966033253,866.5150688563374
38.296666037841675,469.5283302656871,901.8156047172073
25.618228447023196,465.47495831909987,870.2431513309847
44.994773954408494,461.4919467912081,874.4708947499912
29.772042440588788,450.07316463828124,882.1310029418814
37.533306480806395,457.750608005792,882.2207379686236
33.57068927717417,461.6153324529784,878.2244701299629
29.580845650655423,461.6112535881265,874.2394191696451
26.491513411817493,434.7988354840848,901.7564611768545
41.032870552125345,426.7369591042813,878.4539062778829
34.307230297808125,450.2138854756722,901.8217230144852
29.499370325238488,450.0048436520117,874.2781683857385
37.560940790178094,442.3100651088802,886.1986509154503
26.245659832868515,457.9086640188036,889.9012404847732
34.06168263372304,454.01436780144087,893.9556321475734
41.1412663855649,461.52151856138437,874.4137906420644
37.66964253848155,457.78527835703335,886.1476651048014
49.12085166698108,461.53069600730123,882.381853130274
45.785665849194174,457.8281064379784,898.0426547291889
33.979799421820914,461.7183237904892,890.0042318222839
53.24703135117497,461.5694452233943,890.2928115105568
49.31204845691445,449.9926070574559,890.2734369025102
26.10973166167856,438.5646474586123,889.9644628899779
33.65267446069759,453.91239618014316,882.1758704552524
30.61728520952619,454.14693090912806,905.6772700157547
37.778854144891476,453.95114539623626,890.0868288355352
30.208277036500746,454.0439395716173,893.8975083234337
29.799574778339192,434.63262174136946,886.1078961724953
42.06849433802573,457.89234855939594,901.9114580412272
29.96313725890085,438.53507568843594,890.0215669979046
41.44157281028691,446.14929665074214,886.2435184288213
18.620731850326056,450.26487128632107,893.7374128779962
37.751627722004976,450.08234208419805,890.1000851463039
30.09906543009081,457.8790922486273,889.9583445927
38.160737866651715,450.18431370549575,901.878827122412
26.381995890543664,457.9433343700449,893.8271479047381
57.23687497769371,461.5735240882463,894.2778624708744
13.976332386696782,453.95828340972713,870.1075290746586
14.330989685570508,446.3236681231614,881.9117639560911
29.226596238266893,449.9365226657422,866.4243141133824
41.49592368443863,453.8869032748187,886.218025523497
41.33236120387697,449.9834296115391,882.3043546980876
29.799166891854,453.94196795031945,882.1177466311127
30.181050613614232,450.17615597579197,893.9107646342025
37.88796377968012,450.1159927192263,894.025992566269
34.088909056609545,457.8831711134792,893.9433955530178
33.925346576047886,453.9807171664126,890.0287050113953
26.054870929420343,450.1374067596988,885.9998062539196
25.72784793991832,442.3314791493528,878.171444886888
36.851932107294544,438.2709691892747,866.578291261542
33.18921344189913,446.0717982185558,870.4216016682559
37.36974400024474,453.8481540587255,878.3070671432142
45.51299373384388,457.75978545170886,890.189820173046
45.37655570454743,457.7261348166806,886.2639127530811
34.19812066301948,454.04903815268216,897.8825592837514
41.605135290848565,450.0517505978087,890.1571892542306
53.62850718645002,477.111959741604,898.0956799722637
41.38722193613518,438.4116900266656,886.2690113341458
49.557494149378236,446.1921247316873,898.1385080532089
33.89822212478268,450.1119138543744,890.0419613221641
33.87099570189616,446.2431105423361,890.0541979167199
37.39697042313124,457.71695737076374,878.2948305486584
21.819173723952627,473.24213671335275,870.1595346015206
37.778854144891476,453.95114539623626,890.0868288355352
33.73425175773583,465.51778640004494,882.1381409553721
37.96954107671836,461.72240265534106,893.9882630663888
41.35958762676348,453.85223292357745,882.2921181035318
37.697276847853246,442.34473546012157,890.1245583354153
34.11613547949606,461.75197442551746,893.930139242249
26.327645016391944,450.2057277459683,893.8526408100628
41.086915511413174,453.7839119373079,874.4382638311758
30.75372323882264,454.1816012603693,909.6041971519328
30.15351827586383,465.61669887270375,889.9338714035886
26.518331948218815,457.9769850050732,897.7540750409162
41.605135290848565,450.0517505978087,890.1571892542306
45.322204830395705,449.98852819260406,886.2883859421925
37.697276847853246,442.34473546012157,890.1245583354153
27.063778150540706,458.11362697761217,913.4597441532022
44.55843738687524,457.520152141659,862.7043893684389
48.71184349395564,461.42770466979044,870.6020914379528
29.853619737627024,461.679574574396,882.0932734420012
41.87739951971367,469.4304375092412,894.0208939852041
33.1072282583757,453.7747344913911,866.4702013429664
33.62544803781108,450.0435928681049,882.1891267660211
30.235503459387257,457.91274288365554,893.8852717288779
45.40378212743394,461.5949381287188,886.2506564423122
34.38880759484636,461.82029541178696,901.783993514605
37.751627722004976,450.08234208419805,890.1000851463039
25.83695757470696,438.4963264723428,882.1106086176219
33.81623694125925,457.81485012720964,886.0895412806617
44.85833592511205,461.45727643996685,870.5449873300261
29.472143902351977,446.1360403399734,874.290404980294
45.43100855032045,465.4627217245441,886.2384198477564
37.61529166432982,450.04767173295676,886.1731580101259
56.58231914058318,465.2710150765043,874.6320099116416
49.82986034986464,465.5697919269068,902.0022127841823
41.1412663855649,461.52151856138437,874.4137906420644
33.76188606710753,450.07724350313316,886.115034185986
37.751627722004976,450.08234208419805,890.1000851463039
41.768697771410224,453.95522426108823,894.0718797958529
32.94376774943534,449.87228054432455,862.5565305175571
30.26303579713766,442.47219998674376,897.8621649594919
33.81664482774444,438.50550391825965,890.0796908220443
29.662830834178852,453.9072975990783,878.1918392111477
52.865147629414736,465.3352571979219,878.50081322368
37.64251808721633,453.91647504499497,886.1609214155701
41.35958762676348,453.85223292357745,882.2921181035318
29.60847996002713,446.1696909750017,878.2173321164721
37.36974400024474,453.8481540587255,878.3070671432142
45.94922832975583,461.73158010125786,901.9573452708112
30.26303579713766,442.47219998674376,897.8621649594919
18.07528564800416,450.128229313782,878.0307240494972
29.69005725706536,457.7761009111165,878.178582900379
52.97476712230986,442.19177802817484,886.4301264957962
49.393625753952676,461.5990169935708,890.2346876864169
37.860839328414905,446.24718940718805,894.0392488770377
41.468799233173414,450.0180999627804,886.2312818342657
45.43100855032045,465.4627217245441,886.2384198477564
45.622103368632516,453.92565249091183,894.1289839037796
26.00052005526862,442.39980013562234,886.0252991592441
45.24021964687228,457.6914644654393,882.336985616903
41.57750098147686,465.4933132109335,886.1802960236167
57.263999428958925,465.4423274002845,894.2646061601058
37.39697042313124,457.71695737076374,878.2948305486584
42.01414346387401,450.15474193531946,901.9369509465516
37.72409538425457,465.5228849811098,886.122172199477
34.03455818245782,450.14556448940266,893.9688884583421
49.31204845691445,449.9926070574559,890.2734369025102
26.10932377519337,457.8739936675624,885.9743133485952
33.29842504830906,442.23766525775886,874.3607653989897
33.516338403022445,453.8777258289019,878.2499630352875
29.799166891854,453.94196795031945,882.1177466311127
41.79582222267543,457.82402757312644,894.0586234850842
18.566279004553035,442.5272646622446,893.7629057833207
37.94241662545314,457.8535993433028,894.0004996609446
45.37655570454743,457.7261348166806,886.2639127530811
34.27959598843643,465.6554480887969,897.8438100676583
34.11613547949606,461.75197442551746,893.930139242249
41.74147134852371,450.08642094904997,894.0841163904087
33.43476110598421,442.27131589278713,878.2876925351677
38.37905910785029,442.51502806768883,909.7581743000924
33.95298088541959,438.5401742695008,894.0066179582224
45.21309519560707,453.82266115340104,882.3492222114586
30.453824700585834,450.2444769620615,901.7635991903454
30.317386671289388,450.20980661082024,897.8366720541674
29.60847996002713,446.1696909750017,878.2173321164721
29.117486603478255,453.7706556265392,862.4851503826486
33.46198752887072,446.14011920482534,878.2744362243989
41.605135290848565,450.0517505978087,890.1571892542306
49.39403364043787,442.2896707846206,894.2248372277995
37.96994896320355,442.413056446391,897.9784126077714
49.36639933106617,457.7302136815325,890.2479439971856
33.543870740772846,438.4371829319901,882.2268562659013
10.668678906660277,434.8151509434925,889.7452239041876
41.386814049649985,457.7210362356157,882.2788617927632
53.410593831736634,465.471899170461,894.2064823359661
45.10388358919713,457.6567941141981,878.410058480725
44.47655417497311,465.2241081307073,858.7519693269365
37.996767499604864,465.59120596737927,893.9760264718329
37.01508670137101,461.4827693452912,866.5028322617817
37.778854144891476,453.95114539623626,890.0868288355352
34.443158468998085,469.5579020358635,901.7585006092805
26.327645016391944,450.2057277459683,893.8526408100628
45.40378212743394,461.5949381287188,886.2506564423122
26.191308958716792,450.1710573947271,889.9257136738847
37.72450327073975,446.2135387721598,890.1123217408597
30.071940978825594,454.010288936589,889.9716009034686
33.38000234534729,453.8440751938736,874.3230358991094
37.560940790178094,442.3100651088802,886.1986509154503
29.99036368178736,442.4038790004742,890.0093304033488
34.034966068943014,430.8362182804526,897.9580182835118
45.622103368632516,453.92565249091183,894.1289839037796
37.47895560665467,450.0140210979285,882.2462308739479
29.82639331474051,457.8107712623577,882.1055100365569
41.605135290848565,450.0517505978087,890.1571892542306
56.66389643762142,476.877425012619,874.5942804117616
33.679900883584104,457.7811994921814,882.1636338606968
53.001585658711186,465.3689078329502,882.427740359858
37.506182029541186,453.8818046937538,882.233994279392
41.65989405148548,438.48001101293517,894.1218458902889
30.672145941784404,442.57519132425455,909.641926651813
30.481357038336238,434.8029143489367,905.7404924209593
42.31404200211082,454.09186623362723,909.777548908139
38.05152626024178,454.01946638250587,897.9396633916782
33.516338403022445,453.8777258289019,878.2499630352875
33.65267446069759,453.91239618014316,882.1758704552524
33.9525729989344,457.84952047845087,890.0164684168398
29.417385141715066,457.70777992484693,870.3257483442358
37.996767499604864,465.59120596737927,893.9760264718329
37.996767499604864,465.59120596737927,893.9760264718329
38.024299837355265,450.1506630704675,897.952919702447
38.29707392432687,450.21898405673704,905.80575425859
41.87780740619886,450.1210913002912,898.0100238103736
41.086915511413174,453.7839119373079,874.4382638311758
29.308173535305126,461.54293260185693,866.3865846135021
42.50483090555898,461.86414320894505,913.6789831389925
37.124298307780954,457.6486363844943,870.4419959925154
37.64251808721633,453.91647504499497,886.1609214155701
40.81414142444158,453.71559095103845,866.5854292750329
38.07875268312829,457.8882696945441,897.9274267971224
38.51498727904025,461.85904462788005,909.6939321786747
30.208277036500746,454.0439395716173,893.8975083234337
29.663238720664044,434.5979513901282,882.1809690363173
49.61194699515126,453.92973135576375,898.1130151478844
42.04177777324571,434.7141990384077,905.9138441771655
57.564305853680935,450.0701054896423,906.0953536630756
41.7142449256372,446.21761763701164,894.0963529849645
48.9029383122677,449.8896157199452,878.4936752101892
53.27425777406148,465.4382485354327,890.280574916001
41.55037653021164,461.62450989889516,886.1925326181725
10.641044597288577,450.25569384040426,885.7683306735737
18.456761483279205,465.6717635482046,885.8335925112043
41.87739951971367,469.4304375092412,894.0208939852041
22.146706571561136,461.7387181147487,881.9770257937217
18.402410609127482,457.9341569241281,885.8590854165287
42.01414346387401,450.15474193531946,901.9369509465516
53.02911799646159,449.9283649360383,886.4046335904719
41.38722193613518,438.4116900266656,886.2690113341458
41.7418792350089,430.77707474009986,898.0732462155784
45.81319818694458,442.3875635410665,902.020567676016
37.42460473250295,442.27641447385196,882.2717237792723
41.796230109160625,438.51468136417645,898.048773026467
37.5605329036929,461.61941131783027,882.2085013740677
25.70021363054662,457.77202204626457,874.1945516562741
30.398963968327617,461.8162165469351,897.7989425542872
45.37655570454743,457.7261348166806,886.2639127530811
41.35958762676348,453.85223292357745,882.2921181035318
37.99758327257525,426.97251354947923,901.9553058383852
33.625855924296275,430.7342466591548,886.1782565911908
38.37905910785029,442.51502806768883,909.7581743000924
41.33236120387697,449.9834296115391,882.3043546980876
30.072348865310786,434.7009427276389,893.9607307286383
52.97476712230986,442.19177802817484,886.4301264957962
33.32554949957427,446.1064685697971,874.3485288044338
64.28964019313426,445.90252532720154,878.7373873850909
18.893403965676356,450.3331922725906,901.5902474341392
10.88659226137366,446.45521151463555,893.6344215404854
10.341146059051768,446.31856954209655,877.9277327119863
26.43675465118058,446.3705750689583,897.7918045407964
29.581253537140615,442.30190737917644,878.2295687110278
29.908378498263936,450.1068152733095,886.0569103618463
30.126291852977317,461.74789556066554,889.9461079981442
25.481892389348047,465.4413076840716,866.3162241948068
44.66724110679998,472.99536538981204,862.6534035577899
45.294570521024006,465.42907108951584,882.3114927115786
33.352775922460786,449.97527188183534,874.335272493665
37.64251808721633,453.91647504499497,886.1609214155701
32.888907017177125,461.4440201291981,858.5918738814988
38.024299837355265,450.1506630704675,897.952919702447
41.85058098331235,446.25228798825293,898.0232801211423
45.104291475682324,438.34744790524803,882.4002080221076
40.78742485966156,430.5374414300501,870.5878154109712
29.826801201225702,438.5014250534077,886.0956595779395
37.8336129055284,442.37838609514984,894.0514854715933
37.58806524144331,446.1788684209185,886.1853946046816
41.65948616500029,457.78935722188515,890.1316963489062
30.208684922985938,434.73459336266717,897.8876578648163
25.918534871745198,450.10273640845753,882.0728791177416
37.8059785961567,457.8189289920616,890.0745922409794
45.703680665670745,465.5310427108136,894.0912544038994
33.216439864785634,449.9406015305941,870.4093650737001
30.535401997624064,461.84986718196336,901.7258696904653
45.73090708855726,469.39984602285193,894.0790178093438
41.90503382908537,453.9888748961165,897.997787215818
40.67821325325163,434.3715743908471,866.6486516802375
41.85058098331235,446.25228798825293,898.0232801211423
34.11654336598125,442.44262821656736,897.9202887836317
45.54052607159428,442.3192425547971,894.1667134036599
30.39937185481281,442.506870337985,901.7890920956698
34.171302126618166,430.8708886316938,901.8849454196898
25.80983312344175,434.6275231603046,882.1238649283905
42.23246470507258,442.4854562975124,909.8152784080193
29.936012807635638,434.6662723763977,890.0348233086734
29.717691566437065,442.3355580142047,882.1564958472059
45.45854088807086,450.02217882763233,890.2153130783703
33.46198752887072,446.14011920482534,878.2744362243989
29.908378498263936,450.1068152733095,886.0569103618463
49.23006327339102,457.69554333029123,886.3210168610076
41.85058098331235,446.25228798825293,898.0232801211423
33.73465964422102,446.2084401910949,886.1282904967549
37.17864918193267,465.3862430085708,870.4165030871909
25.754666476319642,465.50962867034104,874.1690587509497
14.467325743245656,446.35731875818965,885.8386910922692
45.785665849194174,457.8281064379784,898.0426547291889
41.55068244507554,442.3151636899451,890.1826821595552
29.8544355105974,423.0608821564959,890.0725528085536
34.08931694309474,438.5738249045291,897.9325253781873
37.34302743546471,430.67000453773716,882.3094532791525
33.4075346830977,438.40251258074886,878.2999291297233
33.81664482774444,438.50550391825965,890.0796908220443
27.118536911177625,446.54188739273866,917.4244007892604
49.77581539057681,438.52385881009315,906.0168355146764
41.27801032972524,442.24684270367567,882.329847603412
29.88155996186262,426.9286657523212,890.0603162139978
37.206283491304376,449.94468039544597,874.3933963178049
45.43100855032045,465.4627217245441,886.2384198477564
33.87058781541097,465.5524567512862,886.0650680915502
34.00692387308612,465.58712710252746,889.9909755115153
30.207869150015554,473.3543054967803,889.908378498264
38.51498727904025,461.85904462788005,909.6939321786747
34.170894240132974,450.18023484064395,897.8947958783071
38.05152626024178,454.01946638250587,897.9396633916782
34.08931694309474,438.5738249045291,897.9325253781873
29.636114269398828,430.7291480780899,882.194225347086
27.118944797662817,427.2325411837886,921.4145503306431
30.04512244242428,430.8321394156007,893.973987039407
29.99036368178736,442.4038790004742,890.0093304033488
38.079160569613485,438.577903769381,901.9175763385051
25.80983312344175,434.6275231603046,882.1238649283905
37.86043144192971,465.5565356161381,890.049099335655
37.533306480806395,457.750608005792,882.2207379686236
41.44157281028691,446.14929665074214,886.2435184288213
33.89822212478268,450.1119138543744,890.0419613221641
26.00052005526862,442.39980013562234,886.0252991592441
33.95298088541959,438.5401742695008,894.0066179582224
33.57109716365936,442.3059862440283,882.2135999551326
26.00052005526862,442.39980013562234,886.0252991592441
37.696868961368054,461.65408166907156,886.1354285102458
34.961786134918654,446.5163944874142,921.466555857505
34.03415029597263,469.45491069835276,889.9787389169595
34.00692387308612,465.58712710252746,889.9909755115153
44.7496341768086,445.98308290802674,870.5949534244621
33.81664482774444,438.50550391825965,890.0796908220443
30.69927039304962,446.44399463629276,909.6296900572572
22.31057496698669,446.33182585286517,889.8808461605136
41.38722193613518,438.4116900266656,886.2690113341458
44.96754753152199,457.6231434791698,874.4841510607599
17.8841908296921,461.6663182636273,870.140159993474
38.07875268312829,457.8882696945441,897.9274267971224
26.600317131742237,450.2740487322379,901.7054753662057
41.41434638740039,442.28049333870393,886.2557550233771
37.560940790178094,442.3100651088802,886.1986509154503
29.581661423625807,422.99154145401343,882.2197182524104
34.33445672069463,454.0826887877104,901.8084667037164
33.65308234718278,434.603049971193,886.166019996635
41.06009697501186,430.60576241631964,878.4406499671144
34.08931694309474,438.5738249045291,897.9325253781873
29.662830834178852,453.9072975990783,878.1918392111477
18.102512070890672,453.9970326258203,878.0184874549414
49.557086262893044,465.50147094063726,894.1493782280393
22.583349053958287,446.4011665553477,897.7336807166567
29.662830834178852,453.9072975990783,878.1918392111477
41.44157281028691,446.14929665074214,886.2435184288213
37.45172918376816,446.1452177858902,882.2594871847167
49.639071446416466,457.798534667802,898.1007785533286
33.78941840485793,434.6367006062214,890.0919274166001
26.46438896055228,430.93003217204654,901.7686977714103
49.06650079282936,453.7930893832247,882.4073460355985
41.82345653204714,442.38348467621466,898.0355167156981
49.094135102201065,438.3525464863129,886.3842392662124
26.13644822645858,461.74279697960066,885.9620767540393
33.87099570189616,446.2431105423361,890.0541979167199
29.82639331474051,457.8107712623577,882.1055100365569
30.044714555939088,450.1414856245508,889.9838374980244
33.679900883584104,457.7811994921814,882.1636338606968
48.98492349579113,442.1866794471099,882.4450755354785
45.24021964687228,457.6914644654393,882.336985616903
41.52355799381033,438.4463603779069,890.1949187541109
30.26303579713766,442.47219998674376,897.8621649594919
33.843769279009656,442.37430723029786,890.0674542274885
33.35318380894598,430.6659256728853,878.3254220350477
33.46198752887072,446.14011920482534,878.2744362243989
18.429942946877887,442.4936140272163,889.8359786471426
21.81998949692301,434.6234442954526,878.1388139680727
30.480949151851046,454.1132802740998,901.7513625957896
33.89822212478268,450.1119138543744,890.0419613221641
45.67686212926943,442.35391290603826,898.0936405398379
45.51299373384388,457.75978545170886,890.189820173046
37.96954107671836,461.72240265534106,893.9882630663888
45.15864234983405,446.08505452932457,882.3747151167831
30.290262220024168,446.341003298782,897.8499283649361
30.59016075826098,450.2781275970898,905.6905263265235
37.751627722004976,450.08234208419805,890.1000851463039
34.06168263372304,454.01436780144087,893.9556321475734
45.04953271504541,449.9202072063345,878.4355513860493
33.052877384223976,446.0381475835275,866.4946745320779
34.28000387492162,446.34508216363395,901.833959609041
34.088909056609545,457.8831711134792,893.9433955530178
49.09372721571587,457.66189269526296,882.3951094410427
26.491207496953603,454.1081816930349,897.766311635472
37.04272101074272,446.04222644837944,870.4797254923956
37.206283491304376,449.94468039544597,874.3933963178049
49.775509475712916,457.8332050190433,902.0277056895067
37.72450327073975,446.2135387721598,890.1123217408597
41.768697771410224,453.95522426108823,894.0718797958529
26.028154364640326,426.9592572387105,890.002192389858
29.69046514355055,438.4667547021665,882.1687324417617
21.901566793961244,446.22985423156734,878.1010844681927
30.26262791065247,461.7815461956938,893.8730351343222
44.58566380976175,461.3889554536973,862.6911330576702
41.19602514620182,449.94977897651086,878.3774275619096
41.686712587886795,461.6581605339234,890.1194597543504
34.06168263372304,454.01436780144087,893.9556321475734
37.45172918376816,446.1452177858902,882.2594871847167
37.315393126093014,446.11054743464905,878.3325600485387
40.86900215669979,442.1438513661649,870.550085911091
29.744816017702277,446.204361326243,882.143239536437
30.071940978825594,454.010288936589,889.9716009034686
41.71383703915201,465.52696384596175,890.1072231597948
26.73665318941739,450.30769936726614,905.6324025023838
33.87099570189616,446.2431105423361,890.0541979167199
45.26785395624398,442.25092156852753,886.3138788475169
29.936012807635638,434.6662723763977,890.0348233086734
41.086915511413174,453.7839119373079,874.4382638311758
49.121259553466274,442.2213497983512,886.3720026716566
37.34261954897952,449.97935074668726,878.3203234539828
25.809425236956557,453.93686936925457,878.1337153870078
41.49592368443863,453.8869032748187,886.218025523497
29.908378498263936,450.1068152733095,886.0569103618463
37.587657354958125,465.48821462986854,882.1962647795119
37.8336129055284,442.37838609514984,894.0514854715933
25.56428545935666,438.42800548607323,874.2577740614787
42.04177777324571,434.7141990384077,905.9138441771655
41.7142449256372,446.21761763701164,894.0963529849645
45.04953271504541,449.9202072063345,878.4355513860493
45.21309519560707,453.82266115340104,882.3492222114586
41.74147134852371,450.08642094904997,894.0841163904087
33.89822212478268,450.1119138543744,890.0419613221641
26.218841296467193,434.7305144978153,893.9036266207115
49.31204845691445,449.9926070574559,890.2734369025102
45.24021964687228,457.6914644654393,882.336985616903
34.28000387492162,446.34508216363395,901.833959609041
44.80398505096033,453.71966981589026,870.5694605191376
45.45854088807086,450.02217882763233,890.2153130783703
37.34261954897952,449.97935074668726,878.3203234539828
38.324198375592076,454.0877873687753,905.7935176640342
37.17905706841786,446.0768967996208,874.4066526285735
37.206283491304376,449.94468039544597,874.3933963178049
10.559467300250342,438.6503036205024,885.8060601734538
41.33236120387697,449.9834296115391,882.3043546980876
37.506182029541186,453.8818046937538,882.233994279392
25.72784793991832,442.3314791493528,878.171444886888
57.2372828641789,442.26417787929626,898.2669922960441
26.382403777028856,438.6339881610948,897.8172974461208
45.43100855032045,465.4627217245441,886.2384198477564
26.518739834704007,438.6676387961231,901.7442245822989
33.134454681262206,457.64353780342935,866.4569450321976
37.04272101074272,446.04222644837944,870.4797254923956
45.322204830395705,449.98852819260406,886.2883859421925
30.181050613614232,450.17615597579197,893.9107646342025
53.51980543814658,461.63776620966394,898.1456460666998
33.87099570189616,446.2431105423361,890.0541979167199
41.19602514620182,449.94977897651086,878.3774275619096
34.06168263372304,454.01436780144087,893.9556321475734
41.7142449256372,446.21761763701164,894.0963529849645
37.997175386090056,446.2818597584293,897.9651562970026
33.87099570189616,446.2431105423361,890.0541979167199
30.290262220024168,446.341003298782,897.8499283649361
41.686712587886795,461.6581605339234,890.1194597543504
37.58806524144331,446.1788684209185,886.1853946046816
37.34261954897952,449.97935074668726,878.3203234539828
37.915190202566635,453.9847960312645,894.0137559717132
29.908786384749128,430.79746906435946,890.047059903229
30.59016075826098,450.2781275970898,905.6905263265235
33.65308234718278,434.603049971193,886.166019996635
41.65989405148548,438.48001101293517,894.1218458902889
37.47895560665467,450.0140210979285,882.2462308739479
38.024299837355265,450.1506630704675,897.952919702447
38.24262107855384,442.48137743266057,905.8312471639143
52.48377376576099,449.7917229634993,870.6979447619728
21.874340371074734,442.36105091952913,878.1143407789613
42.12335507028394,446.32060897452243,905.8761146772854
29.253822661153407,453.80532597778046,866.4120775188267
30.808074112974364,461.9181881682328,909.5787042466083
37.533306480806395,457.750608005792,882.2207379686236
45.5673446079956,465.49739207578534,890.1643272677215
34.5255515390067,442.5456195540781,909.7000504759527
33.543870740772846,438.4371829319901,882.2268562659013
41.22365945557352,434.5092360795991,882.3553405087366
37.72450327073975,446.2135387721598,890.1123217408597
41.65989405148548,438.48001101293517,894.1218458902889
45.104291475682324,438.34744790524803,882.4002080221076
37.8059785961567,457.8189289920616,890.0745922409794
