acc_x[mg],acc_y[mg],acc_z[mg]
-936.3493139859178,319.53725278255064,149.89420444290354
-936.4584236207064,323.37240545956064,145.95504071216982
-933.8581472776128,299.85672987207664,114.67626559528485
-941.3479628619356,311.5559339835724,118.44921558330317
-932.3856770660726,315.67354805157726,153.89149199777705
-948.863271351583,300.0780082902928,126.22455170725989
-948.9173163108708,292.34040166621634,126.25004461258432
-941.7833816848772,288.2758128412863,110.67184002692053
-938.0389837508224,272.7710278229569,110.77992994549618
-937.7116548464563,280.57695543330294,118.60829131252773
-925.1426328052904,307.77380654963724,142.25245114284695
-952.8524011767527,280.76458321649085,126.22965028832476
-956.6518637863085,288.5317616107438,126.14705327507356
-944.3275736362572,280.9104026349467,149.9054213212463
-937.3027486450522,299.9892929797638,126.39790346346614
-945.6093569159705,292.17418792350094,110.60147960822505
-937.9298741160337,307.55558728006,106.73981430967763
-930.2779236538472,299.7588371156308,106.88053514706858
-933.3125991036696,280.68402563566565,134.3720842489535
-941.4560527805113,276.7723942426823,122.48933121912174
-933.1494445095932,303.8958257916822,134.29662524919317
-941.3479628619356,311.5559339835724,118.44921558330317
-926.5885903952931,315.13513789112494,99.0351445192803
-937.2487036857643,307.7258798876273,126.37241055814168
-944.9281864857011,292.3455002472812,130.23407585668912
-937.7667195219573,311.4580412271265,110.65348513508692
-922.761595447987,291.9274165999603,103.09534856449451
-936.8663101058976,303.9600679130998,138.16542856123144
-944.9557188234515,327.09538935314305,122.26703308469254
-941.102211254608,327.0658175829667,122.32515690883228
-944.0553094073921,319.59741603911635,149.77897651083705
-925.6055839659824,280.6248820953129,134.48833189723302
-926.3968837472532,303.59704894127964,106.92642237665258
-945.6103766321834,311.483534132451,106.61133006684243
-934.1314312226908,319.0977550947572,102.83328149775919
-957.824537431233,295.9614139385009,90.78268317927122
-956.8700830558856,296.20002753233774,118.2687258136061
-937.7667195219573,292.1486950181765,114.64363467646956
-925.387364696405,292.26494266645597,138.37650981731787
-933.0668474963418,276.8835433098969,142.23817511586526
-941.2653658486845,284.5436515017871,126.39076544997529
-932.7405383081889,303.99881712919296,146.0763869415142
-932.60389633565,304.03348748043425,150.00229436147922
-932.9312252400158,315.53690607903826,138.184803169278
-932.1684775127084,346.62295483167037,153.78952037647923
-924.8979009141757,342.5920166417686,142.13824292699343
-940.8299470257429,327.1341385692362,130.17799146497532
-944.3551059740076,296.35094553185854,145.9275083744194
-922.3792018681203,288.1605849092198,114.88734685137128
-910.1925734068211,299.81492150734454,130.72965793619636
-933.5308183732468,307.6626574824227,122.50360724610341
-944.3285933524701,319.5290950528468,141.92512223848104
-937.1130814294384,327.0698964478186,126.30918815293704
-936.9213747813984,315.5318074979734,134.20077192517323
-933.9132119531135,311.42846945695015,110.71160895922665
-933.9947892501517,299.82205952083535,110.74933845910684
-930.2779236538472,299.7588371156308,106.88053514706858
-934.1038988849405,303.6572121978454,106.8101747283731
-960.7235906247294,296.2306190187271,118.21060198946634
-953.4530140261966,292.19968082882536,106.55932453998055
-945.118873417528,284.5732232719634,126.33264162583554
-953.5886362825227,292.16501047758413,102.63239740380254
-941.5651624152998,299.9158734124294,114.56103766321833
-957.1158346632134,300.00050985810657,110.40263494669436
-938.2572030203995,280.4403134607639,102.90160248402871
-960.5594163144398,280.8237267568436,126.11442235625827
-956.8976153936361,292.3322439365125,118.28096240816183
-934.5128050863447,284.2448746513846,99.02066454905601
-949.1895805397359,272.96273447099674,122.38633988161095
-944.7364798376612,280.8074112974359,138.1256596289253
-921.8071410726396,292.16704991001006,130.58077936910158
-949.1355355804482,280.70034109507327,122.36084697628652
-941.7018043878389,280.572876568451,114.62426006842297
-948.5910071227179,300.14632927656237,134.07738626340293
-936.9213747813984,315.5318074979734,134.20077192517323
-944.5182605680841,292.447471868579,142.0138375490101
-953.1256851218308,280.69626223022135,118.37681573218174
-929.8414851146927,284.4202658400168,122.6382097862165
-945.7184665507591,276.6989746753479,110.65246541887393
-930.05970438427,292.08955147782376,114.75886260853605
-948.9173163108708,292.34040166621634,126.25004461258432
-964.1947046137061,292.49437881437603,129.94549616841635
-956.1338479501155,304.10894648019456,137.8758291567457
-967.6933509404333,284.88933529798663,141.69262694192207
-941.2643461324715,265.234305292837,130.3809149913579
-944.5447731896214,249.95997613864066,150.00637322633114
-929.8404653984798,265.1109196310667,126.62733961138616
-945.5277796189322,303.78059785961574,110.56375010834486
-937.4669229553416,334.70451173438437,114.50495327150456
-932.9047126184784,358.02440180897656,130.192267491957
-936.4308912829559,346.55055498054895,141.95265457623145
-936.6766428902838,331.0416910973676,138.07671325070237
-940.175289217011,323.4366475809782,149.82384402420809
-921.4808318844866,319.28232372930614,134.41899119475053
-926.315306450215,315.20345887739444,106.8886928767724
-929.8139527769422,307.59841536100504,118.63582365027813
-930.1137493435577,284.3519448537472,114.7843555138605
-941.4560527805113,276.7723942426823,122.48933121912174
-930.0872367220204,307.53009437473554,110.78196937792214
-937.3302809828025,315.42983587667555,122.42101023285221
-940.9931016198193,342.5400111149068,122.2741710981834
-936.9213747813984,334.84115370692336,130.2106223837906
-933.7225250212866,319.19972671605495,114.6130431900802
-941.1562562138957,300.0188647499401,126.33977963932638
-930.2779236538472,319.0681833245808,102.89140532189893
-937.4393906175912,319.2639688374726,118.48184650211847
-945.3646250248557,326.9923980156323,110.48727139237151
-941.3479628619356,311.5559339835724,118.44921558330317
-937.4669229553416,296.0858193164843,122.48423263805684
-952.7167789204266,300.1075800604692,126.16642788312015
-948.589987406505,280.8369830676123,138.06753580478554
-948.863271351583,280.7686620813428,130.2147012486425
-952.6892465826761,284.66703716355744,130.14434082994705
-952.4985596508494,292.43931413887515,134.04475534458763
-952.3894500160607,307.91350767081525,133.9947892501517
-956.9791926906743,300.0351802093478,114.32956208287234
-941.8924913196659,292.1099458020833,106.73267629618677
-941.7833816848772,288.2758128412863,110.67184002692053
-952.7708238797143,292.3699734363927,126.19192078844459
-948.998893607909,280.73501144631456,126.2877741124645
-960.6144809899406,292.39546634171717,122.1497657202001
-960.5594163144398,280.8237267568436,126.11442235625827
-956.4611768544816,296.3030188698486,130.0484875059271
-945.0097637827394,300.0484365201165,126.28267553139963
-933.3676637791704,292.25576522053916,130.40742761289536
-945.1453860390654,280.7044199599252,126.34589793660426
-942.2463328455692,280.435214879699,98.91767321154524
-945.7725115100469,268.9613680512714,110.6769386079854
-933.7765699805745,292.1527738830284,118.62766592057432
-953.1797300811186,292.26800181509486,114.41215909612357
-960.6420133276911,288.5266630296789,122.1630220309688
-964.1406596544183,280.9216195132895,133.90913308826154
-938.0930287101102,284.3427674078304,106.81629302565096
-948.589987406505,280.8369830676123,138.06753580478554
-938.2021383448988,288.1779200848404,102.87712929491724
-941.7558493471267,292.14461615332453,110.65960343236478
-937.821784197458,323.02978081200007,106.68984821524171
-948.9723809863717,323.22250717625286,118.29523843514352
-940.6657727154535,331.0365925163028,134.09268200659758
-944.6824348783734,307.8543641304625,134.1100171822182
-941.4295401589739,319.2598899726206,114.49781525801372
-941.4020078212234,323.12869328465894,114.484558947245
-938.149113101824,315.223853201654,98.86169079145274
-933.9132119531135,311.42846945695015,110.71160895922665
-952.5526046101371,284.70170751479867,134.07024824991208
-937.5760325901304,299.9209719934942,118.54506890732311
-914.482519514819,315.1830645531349,114.91487918912168
-929.5416885480772,326.97608255622464,122.49850866503854
-941.3204305241852,315.42473729561067,118.43697898874744
-929.8690174524431,299.86080873692856,118.6602968393896
-937.0304844161872,300.0576139660333,134.25073801960917
-929.7048431421537,303.76428240020806,122.57498738101188
-949.4638842010269,311.51310590262733,106.55422595891565
-956.4346642329441,319.48116839083684,126.04610136998873
-945.0372961204897,315.4889794170283,122.30578230078571
-960.6144809899406,292.39546634171717,122.1497657202001
-941.0746789168576,292.31490876089185,130.29219968082884
-960.505371355152,307.8706795898702,122.09979962576416
-933.7225250212866,319.19972671605495,114.6130431900802
-944.982231444989,303.91723983215473,126.26941922063092
-937.4393906175912,299.9546226285225,122.47199604350112
-945.6644215914712,303.74592750837445,106.63682297216685
-952.7983562174647,288.5021898405674,126.2051770992133
-953.0706204463298,288.4328491380849,118.3513228268573
-937.3027486450522,280.67994677081373,130.38805300484876
-949.6535514166409,265.12315622562244,110.63207109461437
-956.0787832746148,273.227860686371,145.83063533418652
-952.6892465826761,284.66703716355744,130.14434082994705
-945.118873417528,284.5732232719634,126.33264162583554
-944.982231444989,284.6078936232047,130.25956876201354
-944.9281864857011,292.3455002472812,130.23407585668912
-934.1038988849405,303.6572121978454,106.8101747283731
-953.1256851218308,300.0056084391714,114.38666619079912
-956.8150183803849,284.62828794746423,122.23338244966428
-945.3636053086426,288.3737055977322,118.46757047513678
-940.774882350242,296.2520330591997,138.13279764241614
-948.809226392295,307.81561491436935,126.19905880193544
-944.9006541479508,315.52364976826954,126.23168972075074
-942.4655718313595,326.72319293540613,83.05976046866158
-949.4088195255262,319.25071252670386,106.52873305359118
-933.6949926835364,323.0685300280932,114.60080659552447
-944.982231444989,303.91723983215473,126.26941922063092
-945.5553119566825,299.9117945475774,110.57598670290058
-945.3911376463931,303.814248494644,114.48965752830988
-915.1912222828387,311.14294891731635,95.29472347845595
-941.5386497937625,303.7846767244676,114.54778135244962
-949.1090229589106,303.8784906160616,118.35846084034816
-925.6881809792336,326.94651078604824,122.55663248917827
-933.7500573590371,315.3309234040167,114.62527978463595
-942.2473525617821,299.7445610886491,94.9278295850265
-941.4295401589739,319.2598899726206,114.49781525801372
-945.8826408610485,311.41521314618143,98.75869945394199
-945.2004507145662,311.5865254699617,118.39109175916343
-925.7432456547344,319.20890416197176,122.58212539450274
-921.371722249698,315.4471710522962,138.35815492548426
-929.9781270872318,303.69596141393856,114.72113310865588
-933.4217087384583,284.5181585964626,130.4329205182198
-940.82892730953,288.5154461513361,138.1582905477406
-952.8524011767527,280.76458321649085,126.22965028832476
-936.9213747813984,296.2224612890233,138.1899017503429
-940.9105046065681,296.2183824241714,134.2058705062381
-948.4543651501788,300.18099962780366,138.0043133995809
-937.4944552930921,311.52636221339606,118.50733940744293
-937.0304844161872,300.0576139660333,134.25073801960917
-945.2820280116044,299.98011553384697,118.4298409752566
-941.0746789168576,311.6252746860549,126.3020501394462
-937.1130814294384,327.0698964478186,126.30918815293704
-940.9931016198193,323.2306649059567,126.26432063956602
-945.6919539292217,299.8771241963362,106.65007928293556
-957.3605665543281,284.4916459749252,106.52669362116524
-949.6800640381782,241.94500670463412,114.63445723055274
-942.6552390469733,241.71455084050112,95.11749680064038
-942.300377804857,234.07891583772238,106.92234351180069
-946.0723080766622,245.71489754401352,106.82649018778075
-949.7086160921416,296.00424201944605,102.67828463338655
-942.1117303054561,357.7072700667405,86.88512387002699
-933.4777931301719,354.0189565243993,114.49883497422668
-941.512137172225,346.272172454406,106.55626539134161
-948.7001167575065,303.98148195357237,130.13822253266918
-933.8306149398624,284.41618697516486,118.65315882589876
-937.5760325901304,299.9209719934942,118.54506890732311
-929.9230624117308,311.4325483218021,114.69564020333142
-949.9553874156824,338.42341676311486,86.83271045667992
-945.5287993351452,323.0899440685657,106.57360056696221
-941.9200236574163,288.24114249004504,106.7459326069555
-941.8649589819154,276.6694029051715,110.7095695268007
-937.6841225087059,284.4457587453412,118.59605471797201
-949.1640876344115,334.75957640988514,110.40467437912031
-955.8065190457497,311.91487409054065,145.70419052377727
-944.3551059740076,315.6602917408086,141.93837854924976
-929.732375479904,280.58613287921975,126.57737351695026
-949.6545711328538,303.74184864352253,102.6527917280621
-944.7650318916246,315.5573004032978,130.15861685692875
-933.1504642258061,342.5155379257953,126.3163261664279
-929.4050465755381,307.7014066985159,130.41456562638618
-929.132782346673,307.7697276847854,138.2684198987422
-925.9329128703482,292.1283006939169,122.66982098881881
-929.6783305206162,307.6330857122463,122.56173107024317
-940.9380369443185,311.6589253210832,130.2289772756242
-945.2004507145662,311.5865254699617,118.39109175916343
-940.9380369443185,311.6589253210832,130.2289772756242
-941.2653658486845,303.8529977107371,122.40061590859266
-944.4366832710458,304.0538818046938,141.97610804912995
-941.5651624152998,299.9158734124294,114.56103766321833
-944.3826383117579,311.7914884287703,141.9506151438055
-944.8190768509126,307.81969377922127,130.18410976225317
-929.7599078176544,315.3360219850816,118.6103307449537
-937.0569970377245,296.188810653995,134.26399433037787
-933.4492410762085,299.95870149337446,126.45602728760588
-937.8482968189954,299.85163129101176,110.69223435118009
-937.957406453784,322.9961301769718,102.7629210790637
-930.0872367220204,307.53009437473554,110.78196937792214
-948.2361458806016,292.5117139899966,145.8826408610484
-948.5910071227179,300.14632927656237,134.07738626340293
-945.0372961204897,296.1796332080782,126.29491212595535
-949.1630679181984,296.14088399198505,118.38395374567259
-937.9298741160337,307.55558728006,106.73981430967763
-929.8965497901935,315.30135163384034,114.68340360877569
-945.0097637827394,300.0484365201165,126.28267553139963
-941.7833816848772,288.2758128412863,110.67184002692053
-953.2888397159072,296.1021347758919,110.47299536538982
-941.6467397123382,288.3094634763146,114.59876716309853
-953.5345913232348,299.90261710166067,102.60792421469107
-953.671233295774,299.8689664666324,98.68089510689175
-949.1355355804482,300.0096873040233,118.37171715111685
-942.164755548531,292.0416248158138,98.87973976842245
-941.6742720500886,303.75102608943934,110.6218739324846
-945.5553119566825,299.9117945475774,110.57598670290058
-930.0321720465196,295.95835478986197,114.74662601398033
-925.8788679110604,299.86590731799345,122.64534779970735
-944.8466091886628,303.950890467183,130.19634635680893
-948.6725844197562,288.5399193404476,134.11613547949605
-941.5651624152998,299.9158734124294,114.56103766321833
-929.5141562103269,311.53553965931286,126.47540189565245
-948.5634747849674,304.01513258860064,134.06514966884717
-937.3853456583034,307.692229252599,122.44650313817667
-914.0736133134151,315.28503617443266,126.69464088144271
-921.8081607888525,330.78574232791016,122.6015000025493
-925.3068071155798,323.18069881152076,134.34863077605505
-948.809226392295,327.12496112331945,122.20992897676577
-936.7847328088593,315.5664778492146,138.12667934513826
-937.3853456583034,307.692229252599,122.44650313817667
-941.4295401589739,319.2598899726206,114.49781525801372
-925.11510046754,311.6426098616755,142.24021454829122
-948.863271351583,319.3873544992429,122.23440216587724
-941.9475559951666,322.9910315959069,98.77858392009504
-944.9016738641637,334.8329959772196,122.24255989558108
-952.280340381272,304.07937471001827,137.93395298088544
-964.0590823573801,311.8373756583543,129.8822737632117
-961.0509195290952,288.4246914083811,110.38326033864776
-968.9751342201466,276.84377437759076,106.37883477028345
-960.5869486521902,276.9549234448054,126.126658950814
-954.4615133608319,264.913094685749,83.08851646586756
-961.2416064609221,280.6524144330633,106.48182610779422
-957.6878954586939,276.6857183645792,98.69894408386148
-941.9465362789537,284.3723391780068,106.75816920151124
-949.5444417818522,280.59734975756254,110.58210500017847
-953.5070589854844,284.4620742047489,106.58481744530498
-952.8258885552152,284.6333865285292,126.21741369376905
-949.5444417818522,280.59734975756254,110.58210500017847
-949.0539582834099,292.30675103118807,122.32311747640634
-938.0389837508224,311.389720240857,102.80065057894389
-940.638240377703,315.59604961939095,138.06957523721152
-943.9472194888164,335.0726292872694,149.72799070018814
-951.9540311931191,331.19464852931435,141.77216480653436
-944.8466091886628,323.2602366761331,126.20619681542628
-933.5858830487476,319.2343970672962,118.53997032625821
-948.6450520820057,311.7180688614359,130.11272962734472
-929.7048431421537,303.76428240020806,122.57498738101188
-952.471027313099,296.30709773470045,134.0325187500319
-940.9931016198193,303.92131869700665,130.25447018094866
-937.630077549418,311.4927115783678,114.58041227126492
-945.5828442944329,315.35233744448925,106.59909347228667
-940.8024146879924,311.6935956723244,134.15590441180223
-937.9298741160337,307.55558728006,106.73981430967763
-948.5634747849674,323.3244787975507,130.07500012746456
-948.4543651501788,300.18099962780366,138.0043133995809
-929.5406688318641,288.35739013832455,130.47778803159082
-926.315306450215,315.20345887739444,106.8886928767724
-949.1630679181984,296.14088399198505,118.38395374567259
-937.9298741160337,288.2462410711099,110.72996385106026
-941.3204305241852,315.42473729561067,118.43697898874744
-937.5209679146294,307.6575589013578,118.51957600199866
-938.0389837508224,292.08037403190696,106.79080012032654
-937.5485002523799,284.4794093803695,122.52196213793702
-954.0526071594276,284.3254322322098,90.87843453166985
-925.9879775458492,303.7000402787904,118.70618406897361
-925.9064002488109,315.3064502149052,118.66743485288045
-957.088302325463,303.8693131701448,110.3903983521386
-942.1922878862814,307.4821677127256,94.90254062294464
-937.685142224919,303.75510495429126,114.60590517658936
-930.0046397087691,299.8271581019003,114.73438941942459
-938.2572030203995,299.74965966971394,98.91226871561646
-953.671233295774,299.8689664666324,98.68089510689175
-945.6368892537207,307.6147308204127,106.62458637761112
-933.9132119531135,311.42846945695015,110.71160895922665
-945.3646250248557,326.9923980156323,110.48727139237151
-941.4570724967243,315.3910866605824,114.51005185256943
-937.8482968189954,299.85163129101176,110.69223435118009
-937.8758291567457,315.2931939041365,106.71432140435319
-944.7650318916246,315.5573004032978,130.15861685692875
-937.957406453784,303.6867839680217,106.75307062044635
-933.6674603457859,307.62798713118144,118.5776998261384
-948.5359424472169,288.57458969168886,138.0420428994611
-961.0233871913447,272.9841485114693,114.3601535692617
-941.4560527805113,276.7723942426823,122.48933121912174
-926.1786644776761,295.9287830196857,114.80474983812006
-933.8306149398624,284.41618697516486,118.65315882589876
-953.943497524639,280.49027955519983,94.81759826240358
-960.8867452188058,273.01779914649757,118.28606098922673
-964.7402527876493,273.0473709166739,118.22895688129995
-952.9349981900039,288.46751948932615,122.27824996303531
-948.8357390138326,284.63746539338104,130.20144493787382
-941.4295401589739,299.9505437636706,118.48694508318337
-944.7915445131622,311.68849709125953,130.17085345148448
-944.4101706495084,307.92268511673205,141.96285173836122
-951.9805438146565,308.01649900832604,145.77455094247273
-956.8160380965978,303.9376341564143,118.24323290828164
-952.9074658522534,311.64566901031446,118.27586382709694
-948.7541617167943,296.24387532949584,130.16371543799363
-933.6674603457859,307.62798713118144,118.5776998261384
-941.2103011731836,292.2812581258636,126.36527254465084
-936.9213747813984,315.5318074979734,134.20077192517323
-945.4737346596443,311.5182044836922,110.53825720302041
-933.3951961169208,307.69630811745094,126.43053438228142
-949.1090229589106,303.8784906160616,118.35846084034816
-948.4808777717162,296.31219631576533,138.01654999413665
-945.1729183768159,296.14496285683697,122.36900470599033
-934.1038988849405,303.6572121978454,106.8101747283731
-921.3707025334851,296.1378248433461,142.3483044668669
-941.5651624152998,299.9158734124294,114.56103766321833
-933.0403348748044,300.0616928308852,138.2357889799269
-944.9557188234515,307.786043144193,126.25718262607518
-937.3027486450522,299.9892929797638,126.39790346346614
-937.2476839695514,288.41653367867724,130.3625600995243
-934.1854761819786,311.36014847068066,102.85877440308363
-933.8041023183248,307.5943364961532,114.65077268996039
-948.6725844197562,307.85028526561064,130.12598593811344
-941.3469431457227,292.24658777462236,122.43936512468582
-945.118873417528,284.5732232719634,126.33264162583554
-933.939724574651,288.25031993596184,114.71399509516503
-933.7765699805745,292.1527738830284,118.62766592057432
-949.3537548500253,288.36962673288025,114.48251951481903
-941.7283170093765,276.70407325641276,114.63649666297871
-936.8122651466098,292.3883283282263,142.12906548107662
-941.7558493471267,292.14461615332453,110.65960343236478
-940.9920819036064,284.6119724880566,134.24360000611833
-929.8414851146927,303.7296120489668,118.64806024483389
-937.0845293754749,292.3200073419568,134.2762309249336
-933.6949926835364,303.7591838191432,118.58993642069414
-942.2738651833197,295.87677749282375,94.94047406606742
-948.1545685835633,304.1181239261114,145.84491136116822
-933.2034894688809,296.15923888381866,134.32211815451763
-933.2045091850939,315.4685850927687,130.33196861313496
-943.9737321103538,311.8934600500681,153.7303768361265
-948.7816940545448,292.37507201745757,130.17595203254933
-932.6589610111507,315.60522706530776,146.03763772542104
-940.4200211081256,288.61741777263387,149.93703252384864
-941.0746789168576,292.31490876089185,130.29219968082884
-933.0403348748044,300.0616928308852,138.2357889799269
-936.7031555118211,307.8635415763793,142.0790993866407
-952.0621211116946,296.41008907221124,145.81228044235291
-944.982231444989,303.91723983215473,126.26941922063092
-952.2252757057711,292.5076351251447,141.89860961694362
-944.2184640014685,296.3845961668868,149.85443551059743
-940.2283144600858,277.0803485390016,157.82861629608482
-944.7099672161239,284.67621460947424,138.11240331815657
-945.0638087420273,292.31082989604,126.30816843672409
-937.6025452116677,276.7428224725059,122.54745504326148
-948.7266293790439,280.80333243258406,134.14060866860754
-953.2613073781567,280.6615918789801,114.44988859600376
-964.7667654091869,269.1785676046357,118.2411934758557
-953.1797300811186,272.9586556061449,118.4023086375062
-952.7983562174647,288.5021898405674,126.2051770992133
-937.2211713480141,292.2853369907155,130.35032350496857
-957.1974119602517,288.39511963820473,110.44036444657453
-948.7816940545448,292.37507201745757,130.17595203254933
-937.685142224919,303.75510495429126,114.60590517658936
-933.476773413959,296.08989818133614,126.46826388216161
-960.0138681404966,280.96036872938265,141.82009146854432
-937.1661066725131,280.713597405842,134.31396042481379
-948.7541617167943,276.9345291205458,134.15386497937627
-937.6565901709556,269.00521584842943,122.57294794858592
-944.8455894724499,265.3321980492829,138.1756257233612
-944.4642156087962,280.8757322837055,145.9784941850683
-952.6617142449259,269.22649426664566,134.12123406056097
-947.8262199629844,273.30535911855736,161.65255209475205
-953.153217459581,296.1368051271332,114.39992250156783
-956.5152218137694,288.56541224577205,130.07296069503857
-972.6379548571634,265.33525719792186,114.21229471837988
-960.9958548535943,276.8529518235075,114.34689725849297
-968.6212926942433,288.51850529997506,114.1939398265463
-965.5315525689201,276.71121126990363,94.65678901561697
-968.1297894795879,280.9175406484376,129.92510184415679
-968.6202729780304,249.89879316586197,122.17321919309857
-948.3717681369276,253.85835122085527,149.93601280763565
-952.4975399346363,253.81960200476212,142.02505442735287
-964.5760784773599,238.33215216205332,130.12190707326153
-963.458469507936,261.7835856281197,157.53187887810824
-976.2457108186793,280.8747125674925,118.03011221976926
-972.5013128846243,284.67927375811314,114.14907231317527
-979.7994218209072,265.5320624270266,129.80273589859942
-976.9279009651615,261.3940540347622,102.38664579647485
-984.2260099014446,280.8655351215757,110.06103001534673
-957.4146115136159,276.7540393508487,106.55218652648969
-946.1273727521632,295.90634926300015,94.88265615679158
-958.2874885919249,288.12081597691366,79.02831242065334
-958.0692693223477,280.4515303391067,86.90674185374212
-953.4254816884462,296.06848414086363,106.54708794542479
-964.8218300846876,280.7513269057222,114.2765368397975
-980.8364732095059,292.3047115987621,94.37493945434987
-992.2052892679968,280.8563576756589,102.09296752713722
-1004.120673216644,288.5807079889667,90.11405525842159
-1039.8963968327616,269.2652434827388,62.17107778905131
-1047.6564372135235,242.27845390627792,66.07047258747892
-1063.8291363513536,230.62003844330127,46.24443617341294
-1068.0915501216011,230.54661887596683,34.40695854343737
-1071.9766688930472,207.39906084136786,38.35152677009989
-1048.6863505886313,191.8137182422132,46.6021526209256
-1029.8012063242802,195.43065164964594,35.09893796556418
-1013.9792895637146,176.10498998128824,51.099712949886055
-994.411955152881,179.89323571250125,59.229196514609995
-967.8208154670557,222.06971799748135,39.862134368005385
-951.8612370177381,222.08807288931493,55.799584975501325
-952.4067851916813,221.9514309167759,40.09340600510878
-948.6899195953768,221.88718879535827,36.22470466469182
-952.1620533005665,237.46029479995718,43.969449302259186
-948.6348549198759,229.6247954194348,36.19941570260997
-952.7616464337976,229.58604620334162,28.2884573223272
-972.328980844631,225.7978004721286,20.158973757603263
-994.9585230430373,218.3752861578623,35.543534234422566
-1018.1886780908875,222.38888917214345,31.25736107641244
-1014.416747819082,210.75290746585227,31.353112428811066
-1017.1791590400393,211.05576318110673,62.707652460320304
-1028.465378085279,211.2138191941183,70.38733920349968
-1001.6835514676267,203.23352011135302,66.89083428081965
-967.8748604263434,195.02378488066773,43.87716498498468
-940.2731819734569,206.5577949656611,59.95023784880668
-924.1779812678134,206.60980049252294,79.81420770599543
-900.6755619910981,221.97488438967437,87.96367770849373
-889.3067459326071,233.42323831277758,80.24615949381288
-884.5538486639169,264.5143856464746,99.83551977484667
-881.1643119719783,275.953562123661,84.1492252706072
-888.8713271096656,276.01372538022673,84.03358945205551
-899.8587693045027,260.79853976638304,103.54300398199182
-882.1544564147799,276.7020338239868,166.54922934947206
-921.7337215053052,289.3200022433757,244.40558192654984
-931.5495097714307,305.293856719675,291.3002911289788
-939.4472118409448,316.8910892098729,283.29347942467615
-959.8313389383735,274.27918810195126,259.58405775672634
-992.1308499844495,220.08127138217435,227.88617927630742
-956.8762013531634,204.5091850937884,248.0898166040391
-934.6015203968736,238.87566090357055,216.91097367602598
-965.5121779608735,266.12655697919274,208.5064726486619
-968.8741823150618,277.8655300229946,220.19038101696302
-954.4696710905357,269.7689832919499,192.96191869802635
-950.6447155756554,323.7986468365854,181.06285020878693
-938.8669933157604,354.65933830614944,181.13525005990834
-935.7221885149363,369.90001682531755,157.58286468875716
-932.0593678779197,342.7888218708734,157.72970382342595
-928.5586821187665,253.84713434251253,165.93128132440742
-928.6127270780543,226.80018150948592,169.94590405490155
-913.662667679585,257.4599888850933,150.44383148169865
-897.4053320960777,319.34248698587186,162.25214522798308
-898.0334772832721,346.21812749511815,138.60390653281195
-913.6647071120108,315.3880275119435,138.47440257376374
-917.1348013847748,253.7227289645292,162.17770594443567
-894.8315683745215,253.3393156684495,138.9659057884191
-891.4970963580836,257.04190523777237,123.3040844732911
-895.405668602428,287.95256280177233,115.29217418792352
-902.6211805254599,280.4117614068005,130.90810827346752
-898.7401406188659,264.9416467397124,134.94312532822116
-883.899190855185,260.81689465821665,119.48116839083684
-880.0997282456293,253.04971626396377,119.56376540408806
-883.5167972753183,257.05006296747615,131.27316667771362
-884.0898777870119,253.0446176828989,115.5797341599833
-895.7860227498688,253.0996823583997,111.47945526759904
-907.5382521044395,264.72750633498697,103.41553945536958
-908.11031289992,260.72104133419674,87.72159707953277
-899.9678789392914,283.9430386523431,95.61450648284584
-907.1018135652849,268.69828126832306,115.1820448369219
-907.3200328348621,276.3675669061301,107.30371737545443
-918.5807589747775,280.3934065149669,114.97096358083547
-932.8221156052272,292.3924071930782,146.11411644139437
-929.1868273059608,280.72277485175874,142.2830426292363
-916.6718502240827,261.5633269261165,173.93197473143226
-927.8224470129963,261.75503357415636,185.53838466754704
-932.3030800528214,250.04155343567888,169.81232123100142
-913.3088261536816,249.82435388231457,162.24806636313116
-931.539312609301,223.20058327767384,197.38646734613758
-935.0379589360282,234.90488597023452,205.14446829447365
-966.138283715642,235.07415886158884,196.82868257763866
-985.270199303534,273.876400197825,192.48571122656566
-1017.0792268511675,270.0055574533608,164.55058557203532
-992.5407759020665,277.9073383877267,204.13800839226445
-980.2175054682283,308.9046718298298,219.91607735567194
-971.8293199002719,347.6345133149445,231.68462216965023
-975.5472052127894,367.00810164531214,231.56429565651882
-978.2820840959962,332.56106825470476,270.88557254516076
-947.753820111863,309.0770038698231,267.4970555694351
-933.4308861843749,308.68441312782653,236.316173208996
-916.8982272233638,293.39784737907445,271.93689996074096
-917.1439788306915,297.19832970484316,264.0708090938292
-916.8972075071509,254.77915496117436,279.91617932729326
-904.9012659776786,258.6612145839813,291.8570561812648
-905.4733267731591,254.65576929940403,276.16362366353445
-920.8598247107831,258.6438794083607,275.91991148863275
-928.621904523971,250.96541632463686,275.82915674567766
-948.1341742593037,254.9147772175004,267.6744861904932
-941.6273651042915,258.41546297665366,232.43819245104092
-953.1878878108224,277.8145442123457,228.274691153452
-938.2388481285659,308.4743515879531,208.77261858024912
-945.9183309285027,312.40229844034405,208.64413433741393
-958.5413979289566,296.7771869088833,181.0353178710365
-977.6733135168483,296.9607358272193,184.67264560272878
-985.8432798152276,289.1803011221977,172.8031488836657
-1012.436458933479,304.9318574640678,180.2001702926076
-1000.9299811862361,297.10451581324924,180.3990149541383
-1004.3735628374624,277.9277327119863,196.1108023637022
-992.8681048064325,270.1014107773807,196.30964702523292
-955.4781704251708,242.48341686508644,169.49111062391339
-928.6943043750924,234.5031177823212,165.99450372961206
-908.255112602163,246.2339330964193,197.65771185878972
-916.6432981701194,226.81343782025462,181.8990175034288
-927.9305369315721,226.97047411705327,189.5785003033656
-931.8931541352043,230.83519856423962,185.58121274849213
-954.6868706439,238.8195765118568,193.06287060311118
-1016.8610075815901,243.0279453228167,176.41906257488543
-1028.7712929491724,270.06062212886155,160.45030667965108
-1067.8060295819676,277.9593439145886,144.1409655692821
-1122.625973191661,309.0525306807116,111.81800105030771
-1184.2780154283064,309.5277184359593,110.89209872892376
-1203.876961041742,321.1800156016581,98.7858239052072
-1204.7233254985138,355.7249417487114,67.25966563505376
-1158.4791952399648,393.9867334920692,59.97399723656907
-1096.9903075973957,428.22676449144205,49.00572570653588
-1041.7624775025113,435.85526148072995,85.1288666364151
-978.9581559452006,443.3909642946369,117.44071624866801
-951.7378513559678,458.6918060703707,121.72148491074935
-944.795623378014,504.7829788969731,90.27333493088875
-935.972018987116,547.4846150316367,113.80950681425361
-916.8686554531874,582.0519749353756,102.20513631056477
-866.2835932759915,612.6832302570195,110.70854981058773
-858.495000841266,624.2294769365686,110.78604824277406
-858.8773944211327,647.3056548362591,95.00420632937855
-842.4548648111231,655.163587973467,122.69633361035626
-838.9827311059333,658.8998281778182,110.96143943140625
-814.6349670886593,659.0283124206534,146.64742802078183
-773.719873759133,642.8841653367869,108.06850453518787
-763.1127857117365,603.9371242983078,88.73570485333933
-731.167116191564,588.5322714688504,124.5879071854303
-709.0270377753872,564.9360383005411,101.4512601143102
-678.5528187505417,533.7133475753698,98.08843998715159
-640.5643109522621,533.2789484686413,82.96044010951752
-625.1227483391373,517.7190987748111,87.16891089209874
-625.2583705954634,498.37610193083276,87.23213329730336
-590.6859121106597,482.63372303487944,87.80307240494972
-563.6848465072171,466.9841383143072,92.18499691535847
-567.7830859671755,451.5048462013022,88.25113570893221
-557.9672977010499,416.22062579984,45.34637210464328
-552.968648825032,424.2019445988182,76.79136096424367
-538.1001667236009,423.94599582936075,61.31645363095451
-538.3459183309286,427.7464781551294,53.450668678906666
-529.9026680874714,416.2858876374705,77.16355738198061
-527.3574564198784,404.34297135107306,41.92032957228004
-527.3839690414159,381.16482183008475,45.9228176798397
-542.7704669790397,365.84256601387835,49.66864321659283
-565.4826061906972,366.1240076886603,61.10129351001618
-584.9408309667419,377.80995548938733,52.921232021128525
-614.7603921828556,405.33515522630057,75.92939484941341
-684.3407279754045,413.53979187592097,67.01024304935937
-734.2996843978322,452.579627089781,62.20554419704997
-814.5686855348158,468.81554863281553,76.64686717686469
-871.4984219891606,496.514100125935,95.32378539052583
-934.0529130742915,485.17893470247236,70.87731284383557
-1022.8467417517705,462.651364125364,69.62326584511531
-1119.5872188769868,443.983419414377,60.387900047416814
-1308.4692530068883,437.704006974859,57.57990751173949
-1461.926345897937,439.0643084029715,74.8997873891696
-1569.791926906742,463.0765857861757,69.27829585026488
-1568.2419582630157,490.4987941855782,108.4549769799065
-1547.7150708957697,475.21732701789097,148.06075469196924
-1454.6047834887552,466.9372313685102,169.10667761162068
-1317.3305868976665,458.77338336740894,241.83283792120656
-988.2080017131234,429.6084799600272,297.88153956753837
-813.6019945649127,424.70772384045523,335.83537701457686
-728.0080353637583,424.259048706745,360.6664865168024
-801.9323622235933,401.47450964396614,343.9380420428995
-957.0250799202583,383.11655866172447,318.1290246924281
-1125.3690098045715,337.38942452315524,249.04223154696052
-1244.7675811821573,288.1218356931266,259.1945261633688
-1270.1279233989183,241.396399382052,204.02787904126285
-1205.1618034700944,202.1352857499758,197.28347600862682
-1126.225571423473,170.11517694625587,147.5539557341192
-1053.6625657079637,153.93839894357401,132.9964870776463
-1000.0183548918337,110.96551829625817,133.94584287192876
-942.1341640621415,102.81594632213857,138.76502169446243
-879.6877628955863,98.67671427041856,163.26166427883123
-805.7083713602506,90.57914782316082,187.94491493017495
-736.8102257141838,101.51285097357406,173.2416268552462
-658.5959527463508,128.2384912278913,201.79572025105415
-623.560543100855,158.95438299521246,206.1407310345531
-582.1824986106367,208.57887249978333,167.34766714423378
-559.8813050328095,246.81313190539075,136.15556790545193
-559.0094476707133,293.3754136223889,151.71031901821726
-574.2327910142609,339.8846700963123,147.39997858595956
-616.0217811383093,386.7049400151938,154.46559222568362
-628.046274721745,398.26342328929866,138.54782214109815
-638.1343272167356,414.1699764955413,177.5896967873841
-662.3464689776836,414.0751428877344,145.83063533418652
-704.2425293040947,387.4921609316128,164.91564397628142
-734.2252451142848,391.8035210800835,187.99997960567578
-769.6960735827221,357.1168543794263,171.88642400819853
-795.4428882442018,319.014138365293,214.80016111516167
-818.5088689817625,307.6198294014776,218.41811423880736
-825.2063650686016,296.3468666670066,249.75297374740614
-832.7216735582488,284.86894097372704,257.5283098713628
-863.3855597987081,269.70066230568034,264.9691790774628
-881.9443948749065,273.8886367923807,284.29993932688535
-901.0212457872975,281.80979233479326,287.91279386946616
-938.9006439507887,297.7183849734619,302.9892980783448
-922.1793374903766,328.8227886179277,334.5321796943911
-966.5665645250929,360.5400417063932,380.8558478175524
-1007.3745876522565,411.4687482473628,415.3946556673278
-1088.1289737066174,435.30665415814786,414.10369494169777
-1163.7817195474502,443.98137998195114,452.18805606399746
-1252.2828896718045,425.3899139869375,458.77440308362185
-1310.4576996221954,429.6023616627493,446.11462629950086
-1342.028113575992,383.31336389082924,434.02385116222155
-1338.8262046672412,348.3625906910107,422.4164215098938
-1398.530588937099,271.09257493639524,382.53634013654005
-1520.91692881871,249.1054539521651,412.1743918667435
-1620.6145829615618,242.27845390627792,426.4024921864246
-1596.3453370926873,250.11089413816137,458.1360607342977
-1480.8318844865476,256.921578724641,455.9191976872837
-1354.7541719139565,255.66630806646512,426.41472878098034
-1244.910341451974,254.32436153018617,373.1202806259019
-1151.8816313419975,248.89131354743975,280.3414009881051
-1111.3173203897356,221.07243554118892,233.9473724462482
-1085.3757399315773,209.01837018757683,206.9034787618606
-1082.428760076071,255.10546414932725,171.47139950951652
-1115.875451861747,294.3002962275599,198.3103302350956
-1157.8367740257888,356.52643869211204,197.47212350802772
-1215.52212019395,391.7576338504994,192.56422937496495
-1246.7356334732046,434.3807518367639,172.33000056084393
-1235.447374995539,453.53204203270235,160.6603682195245
-1221.7831777416347,456.8369422789638,109.83363329985266
-1157.7959853772697,452.08608444269964,67.63747049196209
-1066.8169048553789,431.68666160207613,29.822926279616382
-1007.2848526255144,361.16308831252263,-16.142923424410988
-915.782657686366,317.72215792344997,-34.24880055880449
-870.1676923312242,267.00249320614074,-41.24374786496919
-834.3960475799586,267.0086115034186,-9.310936966242297
-829.6971952705562,251.74345979513905,18.283307755451663
-798.3786512213652,301.8329398928279,22.507992025819217
-774.7130773505734,321.1004777370458,34.5714387685907
-774.6325197697481,352.01623388211067,30.543661698949187
-748.3126245965749,355.50570276292115,11.303044362753846
-717.1847674792106,359.20523318360506,19.60608362692663
-705.5967124349294,343.67495525995116,23.756634528610693
-703.079033105087,327.86221594530247,-11.47384682842765
-719.0110792166541,312.40433787277004,-23.43420026206707
-754.6195693738433,296.9913273136087,-47.46330296278546
-770.3068835942958,335.6610055421577,-63.52719838069066
-774.8140292556582,339.388068300592,-83.23046096271409
-759.4275313180343,335.40097790784824,-82.98654484456976
-775.6318416584666,319.8737591328334,-102.79963086273091
-793.8908801680493,327.9998776340545,-75.62847659496363
-801.5978953057365,328.0590211744072,-75.74411241351532
-819.3378982629135,332.4529783361291,-32.85393075107198
-830.8433562939435,320.9699540617846,-29.06282981446264
-846.8029347432611,320.95261888616403,-45.00038239357987
-830.7342466591549,317.13582110098764,-25.1236660837289
-820.2913329220478,293.59465260817916,-52.36018416074807
-835.4320792523442,293.7822803913671,-44.73841729846584
-843.1676464439946,309.28196682863165,-48.83115029087406
-891.7357099519205,333.2238837931404,-10.393253557534939
-946.038657441634,341.2745432946012,-23.007652970178402
-983.9731202806261,330.13720281645624,-3.9151902025666265
-992.2532159300067,345.50024728118166,-23.714112362529512
-991.1896519198708,361.21509383938456,3.721107615750537
-979.2742679712238,353.4907435260767,15.699550815008186
-955.4995844656434,349.6148022005476,35.691800971789554
-920.354045469146,337.87786858917167,51.95637654040881
-912.4022984403441,334.01722300683724,59.937695339387055
-950.2806768876222,291.99879673486873,86.98444422917103
-1116.2527468605488,273.8998536707235,80.63477334257877
-1220.977601933382,293.8424436479328,55.451045973905465
-1190.396312706174,297.40431237986473,48.04790626768571
-1096.929124624617,320.1082938618183,72.91898864545998
-1053.886903274819,335.3918004619315,89.21068866534445
-1040.0085656161891,355.1936696017499,152.14573784115882
-1045.8617366786823,367.3038193470758,203.03773459846127
-1033.2172556377561,348.17904177267474,238.61257412062224
-981.1270923302046,359.8772261679575,294.29825679513397
-989.1328843182944,336.6898992010524,290.3315607266498
-1012.1713327181046,309.8560670565382,297.9264070809094
-1034.8284072542613,298.5657691464466,313.32412189687614
-1080.7972141353064,260.3722983893583,328.4628287947465
-1108.2887632371912,245.00313562735494,316.32922557652205
-1070.2737428173739,248.43753983266458,301.1884792462258
-1058.6591751515555,256.08541142999906,301.3363380971076
-1026.5177201184913,287.07050827754637,333.1096755772869
-996.3483962413261,271.22105917923045,317.91692372012875
-954.3962515232012,247.61258941636544,310.7758510806443
-890.0592964977848,215.9177700845855,284.37437861043276
-802.3830767897296,176.37521477772736,266.1979371141012
-747.4968516261926,70.92595330719462,204.58158494490988
-708.8893760866351,87.09080063018463,314.99441705373397
-677.9236538471345,9.649278805708374,335.3428540837086
-616.5153237853906,90.21113224189709,312.44308708886325
-593.9693983164485,221.19276205432033,269.1683704425059
-617.5289217010907,333.25651471195573,233.11630373267124
-637.9150882309455,348.5726522308842,197.4374531567865
-675.9301086507626,306.5195556076744,220.55747885363505
-692.7615444621762,259.93993871505563,189.0655830482377
-700.3319176273244,260.0337526066496,192.8762625361362
-746.1926345897938,295.2435337245645,195.9955744316357
-781.1474866544642,334.06209052020824,179.64238552410865
-799.2974155292583,396.28109497126957,198.78347855791736
-826.0812815793365,384.9520478450848,206.2702349936013
-860.5976556724264,369.81334094721444,213.6529803755615
-898.6412281462069,362.51013342986647,228.8059633004135
-957.2341217439188,328.00089735026745,212.34672390673677
-1003.420128178328,316.7860584399362,215.61695380175698
-1041.1098591262053,321.1575818449726,238.58606149908482
-1037.336909138187,348.1402925565815,230.7016157403395
-1042.8943624989167,344.87822039126513,293.4233402843989
-999.7399723656907,375.63795995574435,309.6643604084984
-995.3144040013665,379.6138334701453,325.4159167503684
-1005.8654076570491,387.6797887148007,352.70352260965774
-1001.303197320186,391.6893128642299,372.38098637149284
-1000.9218234565321,426.54219330760253,376.1937052918173
-1031.1472317254108,453.96440170700504,387.42282022913025
-1061.3818174402065,462.0762441812444,402.6410649916129
-1112.1025018737287,470.03003064247224,382.2314449888596
-1149.5668755385377,466.7322684097016,413.077860431442
-1199.7980961898304,467.085090219392,408.39940244629923
-1220.6207012588397,420.5013944619213,372.92347539679713
-1214.6349670886593,350.4968567247735,337.9278346836076
-1212.6873091218715,292.05997970764736,294.9835060902551
-1276.3074036495643,226.39127530808176,251.0806442567034
-1387.5074566748076,188.77190477890005,273.090198997619
-1516.9196412638364,205.63495179291604,314.2653199614548
-1573.085610274661,225.80187933698056,356.52643869211204
-1510.526020608465,256.44639096939324,376.9839853568752
-1359.7813728439376,282.43487837334874,387.0026971493834
-1246.4093242850518,273.25743245654735,325.9380114514131
-1160.3758673961038,252.6142974410222,256.6533933606278
-1147.0073878439632,232.67272718002584,201.97621002075124
-1124.6450112933571,240.02590079180968,178.73891695941023
-1124.186138997517,286.48519117129706,182.5139063798545
-1104.9440940586237,340.3955479190142,170.84631347096104
-1112.877486195592,386.743689231287,154.8724589946618
-1132.139925458745,425.51126021628187,146.60358022362377
-1167.391514941392,460.3916729974049,122.41081307072243
-1198.8803515981504,464.32777757949964,102.30200935079768
-1207.5071507599437,468.0160911218408,74.68829824659798
-1188.1121483891036,467.9018829059873,78.90390704267003
-1130.936660327431,436.4028490870991,68.09277378105674
-1062.6054768957802,404.712108620171,45.675434526571266
-1009.6658899828178,357.7001320532496,27.003920808838902
-948.6919590278027,318.43391984010856,16.27589441858331
-890.9158581166863,275.50080812509884,25.135392820178147
-863.6415085681655,259.9195443907961,37.370355829972524
-870.0392080883892,233.27435974568283,80.53524904019211
-844.0191094818313,232.82670432818549,53.454135714030784
-840.4113535203153,236.59761488377788,45.64627064288009
-832.4320741537632,236.60577261348172,53.61494496081741
-828.9599404485732,221.03266660888278,45.870302294871344
-817.236263147966,224.84640524542021,49.95763079135077
-818.298807441889,209.13257840343033,22.52237002442221
-825.5153390811338,240.21046942635866,30.158718828550022
-810.2930154537993,270.9385977882356,18.509174896626273
-806.4405276011687,290.21837222700924,14.577251151004678
-807.4225143142664,305.41928181387124,-16.88568471394411
-791.0540296635447,305.5396083270026,10.831425614251554
-791.0540296635447,305.5396083270026,10.831425614251554
-783.182840215568,290.0735725247664,18.85067785635258
-775.9122636170355,286.04263433486466,7.199359618218251
-780.3113193598223,266.6262179235519,-4.574885409390568
-780.8558478175524,227.87088353311273,-12.301550478501834
-772.3034879393066,231.88550626360689,11.360760300408398
-764.9778466652732,235.59217469778162,-0.31590196448328434
-764.2150989379656,266.6782234504138,15.289115039284571
-798.7335124634816,270.84886276149354,18.682628624453816
-810.3756124670505,278.64153406107084,14.557366684851607
-832.1873422626485,271.42500242182604,53.50114463144907
-859.3790947979179,259.9929639581305,49.2078334599481
-875.0929216399078,256.17412674052815,41.136065832878714
-913.8727292194584,260.27236620048643,32.692101788072385
-932.6497835652339,272.1296263249938,44.14473851927009
-951.8082117746632,268.4443719312916,47.79481270362459
-947.2184691000496,295.6320456017091,63.47029821600649
-1008.4371319461795,280.77070151376876,78.30196856214917
-1108.8700014785886,304.6534749379248,64.94307434241053
-1243.1156409171329,317.4386768162421,78.58759107340427
-1303.6052066709838,349.1039243778457,105.04708539613426
-1242.004150244987,379.50880270020855,98.01797759683481
-1147.6396118960095,414.02415707708553,146.41085385937095
-1045.5966104633083,444.6105448853585,194.93099070528675
-962.5427643486819,436.79543982909564,258.9956815018381
-879.6296390714465,428.9456644215916,319.1334451622114
-843.7213523476418,428.98543335389763,354.9927855077932
-835.2505697664342,421.393646148277,378.6930297298262
-881.545685835632,394.70461370600566,382.01424543549535
-950.5804734542379,364.427199910265,396.78075591562873
-1036.4497560328962,326.1888616398057,372.07609122381245
-1091.1881223455514,291.6500537900303,355.6739559380625
-1146.2527978463595,268.61568425507187,327.4543294601113
-1134.5566528835027,287.8699657885211,327.5644588111129
-1090.9026018059176,267.5531399611489,257.6435378034293
-1046.2186373532247,239.77301117099117,219.16046764185532
-974.5805142428864,207.91605696134766,181.09548112760223
-940.171210352159,149.65151198421484,185.73111103179986
-910.1609622042187,91.27989680471926,174.60396771578473
-868.0986881350921,44.5279478721072,175.39220834841666
-821.0398046223737,44.37611212799478,199.6451387578837
-755.0396924535903,55.579020358634196,212.37017737963527
-692.7860176512878,101.59595784493176,220.99595682521556
-658.5959527463508,147.54783743684135,197.8055707096715
-643.3471164974789,182.1447691107565,186.14307638184295
-662.2873254373309,228.71826770609744,185.7025589778365
-666.4691816267533,278.8699504927779,165.84766459494324
-697.6531231358314,325.3618717910806,145.60119918626646
-719.7921818357952,368.2674511683399,164.74739080114006
-738.7068978703227,418.70975307571905,164.2936170863649
-773.442510949203,449.85902423355583,155.8197753565183
-777.7599893949515,461.357344251095,140.01723320399935
-788.9391382378285,476.99061351225953,147.64674990950022
-827.7189458173792,461.77848704705485,143.1926294912126
-842.2866116359818,446.66221390587003,170.4975705261226
-875.4681772062836,447.30667455247215,213.16861517439696
-916.9553313312906,420.82668393386126,244.03338550881293
-935.7313659608532,394.0652516404685,263.46611737953333
-965.9037489866571,371.2960083208843,286.6381486032438
-946.1732599817473,378.9877277153769,298.68201679472605
-961.4781806223328,375.2718818352853,302.3897049451138
-946.4730565483627,355.741257208119,294.8315683745214
-950.3265641172063,355.77082897829536,294.77344455038167
-956.7517959751801,363.875533439044,329.97098907374084
-971.4836361040723,364.1651328435297,349.37312945807184
-1001.1940876853973,368.54583369448284,380.3102996436092
-1050.929726257183,399.91638327053585,383.3837243095247
-1084.692530068882,415.8647448415107,406.37220661489914
-1135.7701151769463,392.8334344551912,382.1366113810527
-1190.5084814896015,396.91433873952883,357.75519672875043
-1237.5887790427926,373.8881269342742,337.50465245522173
-1237.5581875564033,319.82787190324933,349.46184476860094
-1231.4398902785356,288.47669693524296,310.41283210882415
-1273.9008733869364,257.888269694544,313.8044082331888
-1466.168365343925,259.4790269867896,322.69327446171735
-1649.8804382740286,245.77404108436622,359.2337852375684
-1664.3094226876663,250.00178450337276,386.47550386727374
-1540.1283822712142,276.30128535228647,407.87016973176367
-1395.4204544875163,263.1540842183621,362.9863409013272
-1296.7833052061612,254.26623770604644,321.323795587688
-1302.901602484029,242.14283164995186,258.4786853818582
-1316.6983628456203,233.9473724462482,195.50611064940628
-1313.5474397475184,229.8776850402533,175.9438748196377
-1294.8254500772437,248.90151070956955,156.53663585424178
-1299.0368780368426,295.18540990042476,136.69397806590428
-1326.314286734002,330.0750001274646,120.46927340121246
-1353.2347947566193,376.64034099310163,112.05967379278347
-1380.9404842632298,388.2487903616424,88.0580014581942
-1312.2931888055555,383.67332371401045,69.47867008611505
-1231.8273824394673,375.2086594300806,58.93857739391128
-1108.1358058052447,351.1810863036817,76.57100029061914
-1015.708728260925,304.11098591262055,85.96350435673753
-915.545063808742,280.158871785982,91.46925810546927
-819.8079874370962,232.92153793599246,85.21350308209227
-765.5040202311698,205.56153222558166,101.81764414963317
-735.3306174891528,189.71106341105272,86.62458637761111
-704.5851539516553,197.17640580626414,83.13532144004324
-700.350272519158,212.69036827051036,90.99570189616232
-704.231312425752,228.16048293759852,86.96078681302996
-713.2466234646898,216.30628196173006,51.544105275501835
-710.0202413668277,204.53365828289992,35.93367765750792
-717.6456792074766,196.88986555041734,39.76985005073089
-744.8924964182469,197.02956667159532,31.511984214793028
-753.4713689180302,169.8367944201129,11.852161543442461
-753.9343200787222,161.99721617473858,0.09779853466780196
-774.4285765271526,142.52777452035102,-31.540434297135114
-792.7416599960233,142.91628639749558,-4.34374633539486
-797.5220896024637,127.26568196071037,-27.910244578933685
-804.765133863246,115.85607725370032,-12.281767983970061
-824.0316519912509,96.69560961184503,-8.581136269776122
-850.7879857035788,108.54471200664855,-5.097275828137031
-851.6598430656749,81.29228635670694,-24.641544258232937
-813.0982547557015,84.86343450617694,-24.07590767489408
-801.3195127795935,77.10512764297697,-16.02412648559906
-781.3167595458185,84.86476013725381,3.872474290404981
-773.5281671110931,115.72045499737425,-0.03958212029592165
-773.6107641243443,142.73375719537253,-7.981186235870558
-795.8059072160219,216.52042236645542,3.211290297910092
-855.7703191201889,244.4535085885598,45.38971004369484
-910.1283312854033,264.0769273911071,28.810755966614494
-991.4058317570222,272.33662871622835,15.791529217418795
-1056.232250564668,292.3230664905957,30.451581324917278
-1078.2887122513807,308.2163633860697,57.53993463619076
-1081.684367240597,316.0855134016204,69.23638551391149
-1058.0983312344176,304.43831481698646,85.3275073547032
-1038.6421458907987,292.7513473000464,93.50756884359085
-1091.932515181025,270.1605543177334,116.33330444137398
-1280.9369152564843,263.84749124318705,109.59909857086774
-1484.686411771604,277.1333737820765,118.27586382709694
-1526.035904207859,308.61507242534407,141.09813238975593
-1393.2484589538733,308.0481102109283,194.10909943762653
-1214.8185160069954,299.24999872535477,232.1332973033605
-1111.021602687972,282.93759846634686,229.81854149990062
-1062.890997435414,317.80985351776604,277.51678707815614
-1061.3716202780768,341.36427832134325,316.7065205753239
-1091.2187138319407,365.0196550300052,339.7276337995136
-1124.7775744010444,369.42992765113473,370.60668016091125
-1135.2500599083276,369.7929466229549,401.8456863454901
-1135.464200313053,338.84252012664876,401.9466382505749
-1124.5328425099297,327.01075290746587,386.4520503943753
-1125.348615480312,346.11513615760737,358.9033971845636
-1110.7564764725978,384.4095588197805,327.59505029750227
-1100.7734547475438,410.95685070844786,276.63575227014326
-1056.9562490758822,375.23313261919213,214.61763191303865
-993.4146726965887,308.58346122274173,172.62367883018157
-916.8064527641958,222.90996415697512,177.98534667801954
-816.1788174351079,148.87040936507373,207.21449220681887
-769.3911784350415,90.72180612135644,235.58401696807783
-726.0746534239522,67.45575706280943,267.7081368255215
-684.504902285694,66.92315928477106,244.7849163577777
-638.209786216496,93.61300750001276,241.46370065210854
-619.2165520335692,151.32384657349863,221.93001687630337
-607.6305364217139,213.03197320185794,210.12170313001894
-615.663860747554,224.59453534081467,198.18898400575122
-615.7199451392678,274.7859870598013,186.24504800314077
-627.3355325212993,325.06615408931697,174.12776024432404
-643.4317529431561,344.3234947714052,150.27353887413136
-646.0310095700368,367.8391703588892,181.55231399101632
-661.4185272238736,371.8262607516329,181.3086018161146
-691.618442587428,383.8079262541235,196.5135902678285
-733.4890100085147,380.4030938189902,211.59723249019802
-790.25457215257,373.3854068412761,242.16730483906332
-816.9007765138963,381.39935655906964,249.58981915332964
-850.3280936915257,385.84429953144047,284.39579265090526
-893.0705184747086,374.496897513422,275.9443846777442
-931.168135907777,359.4560833719976,291.12388022413364
-945.5736668485162,367.55263010304236,318.35234254307034
-976.8646785599568,379.25999194424196,302.1459927702121
-1036.1744326553921,384.18624096913834,367.95949687202057
-1055.8753498901256,380.3633248866841,355.9033920859825
-1063.0133633809712,365.11856750266406,375.470726496816
-1046.2900174881331,357.6042787292297,414.9928874794145
-1062.411730815314,334.3741236813795,399.1312017865429
-1089.3016473515422,326.87920951599176,402.678794491493
-1109.3390709365585,334.5607317483545,378.8051985132538
-1158.4791952399648,354.496183712073,401.54894892751355
-1235.2434317529433,378.33816848770994,404.2430391622012
-1293.1021296773108,390.35654377386777,399.4116237451118
-1334.2578760331,366.8255724431891,328.2313532144005
-1430.8046070778503,336.6195387823569,326.88736724569554
-1626.6003171317423,326.73644924617486,347.53560084228565
-1868.0589192027862,340.52505187806236,379.1937103903984
-1978.9122687156168,333.889758480215,405.0282206461942
-1878.8781082224818,309.9039937185482,406.60674134388404
-1580.733481871995,291.52666812826,344.41628894678615
-1317.6568960858194,219.25530124966224,281.88219218591473
-1154.6042736306488,170.96969913273136,217.76957472735342
-1144.37652001448,155.09679656151695,182.65462721724546
-1159.3867426695151,193.93778711384624,186.2236339626682
-1154.9305828188017,240.40115635818555,193.98265462721727
-1174.1114447849163,252.1564448613951,193.65532572285136
-1178.159718150439,283.03345179036677,181.71648830130576
-1221.120362203199,298.66366190289244,161.39762304150756
-1252.578607373568,325.77791600597556,137.28745290185742
-1249.3257126541685,356.49278805708377,113.68408172005732
-1241.40251767933,368.0737050878741,117.68850728842166
-1172.2555612772967,375.2076397138677,110.85131008040464
-1103.0882105510038,347.5906655177865,111.9801359281712
-993.024121387018,319.27008713475044,70.55365491783638
-924.4247525913539,268.33832144514184,59.97919778925526
-844.264861089159,236.62718665395425,45.58845273360424
-775.2025411328028,212.84536513488297,42.778522737122266
-706.3574207298109,196.73180953740578,32.090265279172804
-686.8991959537661,204.3541882294158,36.28058511316301
-672.2764654596626,207.89872178572708,12.939994799447316
-671.9766688930471,231.14621200919788,16.79064716289457
-679.3838874641189,235.14247984785834,24.515507334308865
-660.8811367796343,261.8355911549816,-2.7697735720149086
-687.6639831134996,250.50552431258384,4.716503597048941
-676.1860574202201,277.42909148384007,-3.0516333304441376
-695.4260629266876,281.44677336297315,-3.353387752188566
-719.1742338107306,289.1915180005405,-23.358333375821513
-707.5331535233745,320.0175391188633,-27.212554746014188
-735.5151861237018,292.93999479944733,-51.088088185058105
-746.2844090489617,289.3658894729597,-27.68967996206656
-755.1365654938231,262.1047962352078,-55.20264310442404
-759.3714469263205,246.59083377096155,-63.06292158892181
-770.3323764996203,254.55481739431917,-47.55548530843867
-766.2881819989498,262.2965028832476,-43.59643711155186
-754.727659292419,281.51713378166863,-47.41272503862176
-748.03016320558,273.4807503071895,-74.75763894908049
-751.1474356686535,281.41822130900977,-55.208047600352835
-758.4180122671862,285.4491594989115,-43.55666817924572
-804.2777095134425,282.0402481989263,-32.45817888881525
-830.7342466591549,297.8264748920376,-21.13392442883146
-891.9539292214978,321.58280350578434,-14.28183936410497
-933.7143672915829,314.34383810985406,4.74016101319003
-972.8480163970369,306.7673466474281,-11.518918285041275
-980.9364053983777,291.2829559533582,-19.437116650436188
-1022.5612212121368,264.7693146997191,7.501175222935458
-1006.4925331280306,280.26186312349273,23.38810908924047
-1041.772674664641,272.6557998908904,7.186786517312232
-1186.7559258258427,266.4253338295953,48.20688002528897
-1360.5767514900606,267.6612298797245,33.82521044393346
-1437.6978886775812,318.4471761508772,20.724814284184713
-1364.155955397613,383.6162196060837,17.681879133037278
-1226.8103786716158,444.9868201679473,78.4015948361571
-1085.3247541209282,467.778497244217,155.01216011583978
-1017.2556377560127,464.0534739182086,230.61188071359743
-934.2874478032763,444.63195892583104,294.7143010100289
-897.8876578648163,437.0717829228126,346.30480337322126
-904.5311089923674,433.5364268124182,377.6141699764956
-941.7568690633399,426.43818225387884,416.32667628598966
-1003.6026573804511,419.14211275002174,411.5003594499652
-1049.7060668016093,438.84302998475533,410.74271030372256
-1085.3145569587984,404.12169293285683,390.7042670024933
-1132.6701778894935,381.02716014133273,362.5998684566086
-1118.5471083397492,353.5529462150684,331.5077014066986
-1105.4131635165936,298.7931658619406,276.9437065664626
-1068.2750990399375,255.66630806646512,246.24922883961398
-996.4207960924475,216.1400682190147,216.06155007061537
-924.8948417655367,168.80790076121818,178.04652965079822
-867.0912085166698,110.43322643308369,190.88271733976438
-809.5608592128812,51.99002717543708,195.8670901888005
-743.0967761671927,32.4142291200359,228.32567696410092
-650.313817664544,16.327797973823888,241.5432385167208
-596.2025768228702,39.123553914945475,242.27641447385193
-595.4122967578124,93.38826204667242,253.8797652613278
-618.7250488189137,124.41353571301109,241.6513284352965
-623.7247174111445,193.67062146604601,194.24778084259154
-666.4141169512525,228.67951849000423,177.79160059755372
-677.0487373363993,302.3764486343451,189.15735750740572
-723.4815150943493,333.5807844676827,176.58323688517487
-745.3217969439106,380.42348814324976,203.57002646163576
-749.9390719562747,407.2950497876442,175.93775652235985
-752.8666772037343,442.3141439737322,195.3990404470436
-794.872866881147,438.8756609035706,206.55575553323513
-814.466713913518,431.21861186031936,198.43881447793083
-848.4936242243786,427.7882865198616,217.56359205233187
-889.7911111337717,428.3899190855185,248.3396470762187
-937.9767810618307,409.94631194138674,306.54912737785077
-1004.7396409579216,386.9659873657162,274.23024172372834
-1026.711466198957,375.84598206319185,309.2595330719461
-1037.1329658955913,383.9466076590885,340.47406606741345
-1056.9460519137526,364.6494980446942,328.4679273758113
-1048.1662953200125,360.9948351373813,360.00876955943164
-1035.3586596850098,384.3912039279469,391.5190202566626
-1027.812759708973,399.73793293326474,383.7304278219372
-1010.7641243441951,419.33891797912645,427.0908006301846
-1026.5075229563613,430.9616433746489,415.04183385763747
-1049.6550809909604,446.5806366088318,410.7182371146111
-1103.7102374409203,470.1411797096868,401.97926916939025
-1176.5689608581933,482.380833414061,408.6961398642758
-1294.8764358878925,447.8399861318596,336.39724064792773
-1476.2023728796278,418.2886102797592,333.78064884542636
-1756.858866177543,416.76311482514416,349.2048762829305
-1973.915659272025,457.72817424910653,412.53435168992473
-1756.3592052331837,428.47149638255684,360.94690847537134
-1456.1139634839626,316.9420750205218,267.7050776768826
-1245.5527626661503,190.3820366791922,145.69807222649936
-1185.7464067749945,100.61703028047296,111.57530859161896
-1220.5901097724507,96.98194592444924,107.14056278137795
-1274.0538308188832,147.72628777411248,110.09366093416203
-1323.7955876879466,159.7874911412154,117.15723514146013
-1339.672569124013,190.68489239444665,97.19200746432269
-1371.2327859156799,221.63327945832677,69.14246965069621
-1403.9146905416223,267.74892547404056,5.70338494796898
-1434.1696705806776,329.9210229793049,8.965049226800183
-1422.7182575089355,391.59447925642297,-6.769977515257505
-1361.2293698663664,406.5251640468458,-13.748527784717515
-1256.2903743888078,398.2236543569925,15.323785390525817
-1128.989002360643,377.965972069973,25.14824124446167
-1001.4133266711876,338.4682842764859,46.815579224301885
-912.8101849255354,314.60590517658943,52.14787924520606
-855.1442133654206,294.8152529151138,53.078370289548424
-825.5163587973467,259.5198156353087,26.168875202031277
-779.6015968755896,251.3569873504204,19.03494057603769
-749.64641340315,243.17580417369848,-4.036454854613961
-733.9866315204479,239.2570347672243,4.060571143050889
-726.5253679900885,242.99735383642735,-3.6895168074724807
-718.8458851901516,239.06940698403636,-3.5612365078798573
-719.9634941595755,215.61695380175698,-30.97122870705083
-703.677606522105,223.44123630393662,-7.2059163934676995
-695.9430590466674,227.2498763594092,-7.102914858794799
-684.5191783126756,246.43583690658895,-14.845742429881765
-672.9596753223578,265.65646780500987,-18.662030356951664
-692.5270097331913,261.8682220737969,-26.7916158932969
-692.6626319895174,242.5242055136056,-26.72839348809227
-693.2081801634606,223.0782173321165,-38.444830803587365
-693.1255831502094,215.3752810592812,-34.493022591812704
-673.9396226030296,203.61999255607168,-34.165999602310684
-694.0790178093438,176.5169553313313,-53.999276001488795
-689.0538563117885,188.36707744234783,-22.56703359455064
-697.4971065552458,180.51730203484374,-42.29007867110583
-708.0481102109284,169.27493078676207,-11.01324101502552
-729.9138849658141,154.31977280722776,27.9558258936538
-753.1980849729522,150.59576919743236,23.695043669346823
-787.3881498778891,162.57233611885815,34.91630679181984
-822.4796439150986,220.66556877221072,10.646958951323848
-864.2411017013966,252.0452957941805,21.689465821661834
-913.6820422876315,248.73427725064116,40.58317570220208
-960.5787909224863,272.09903483860444,16.254174463246883
-971.4846558202854,287.7996053698256,31.73632178164817
-986.7079991638328,314.9995156347989,31.416538777258292
-985.127439033717,346.2915470624526,70.58077936910159
-957.4441832837922,369.4329867997737,86.6159187898008
-996.4697424706707,358.02134266033767,74.29591144784408
-1114.8863271351584,370.78920936303433,99.95135953664096
-1268.159871107871,399.2321536916277,117.18272804678459
-1327.0484824073462,399.4044857316209,84.90299949524048
-1234.0197722973696,418.1366725640255,98.00716860497725
-1107.7381164821832,452.6866972921436,178.27494608250527
-1049.338968964937,479.42467611263794,190.83275124532844
-1020.3688313542342,471.9919646362418,250.16086023259732
-987.0638801221622,476.2380629470819,321.28912523644675
-1002.3953133842853,468.653413754952,325.0100696976032
-1028.7712929491724,457.42735796627807,344.2755681093952
-1063.2886867584753,442.2886510684077,351.65933320756835
-1128.989002360643,415.7128071257769,350.7640223725738
-1184.1352551584894,381.07202765470373,322.58314511071575
-1219.1930985606707,346.4863128591314,318.24935120555955
-1238.7104668770683,369.74501996094494,306.10555082520534
-1221.2121366623671,388.4608913339418,251.35902678284634
-1226.290323402997,388.1835285240118,215.9626375979565
-1195.9027802562548,326.0450816537758,216.62749256881813
-1155.3996522767716,290.4896167396614,170.25895693228577
-1106.9223435118008,279.10754437040174,237.7417364747391
-1031.2084146981897,162.31332820076176,223.5717599791978
-943.8330112729627,118.83364859559586,197.55472052127894
-850.3423697185075,164.71577959853775,218.42321281987225
-768.2470568440804,175.97038744117515,251.01232327043388
-703.6388573060118,202.27192772251485,220.49425644843043
-680.2455476640852,202.1617983715132,228.69379451698595
-653.6258559242964,209.58839155063146,217.2943869721057
-642.5843687701713,232.5401640723387,197.75866376387452
-661.8529263306023,290.6170812662836,185.50065516766685
-669.5609611845025,348.60528314969946,173.41497861145245
-688.1197962607007,391.4129697705129,184.76645949432276
-692.7105586515273,441.4626809358956,153.13180341910848
-714.8231047299537,468.92669770003016,176.25590798080896
-753.8221512952946,500.0035690067455,155.9441807345016
-771.725308846548,500.4940525051879,194.92079354315698
-794.737244624821,496.838369881662,198.51223404526522
-813.5132792543835,489.38628379721933,213.95481637460298
-865.1700631714195,409.27839782188624,295.86861976311997
-955.9615159101222,398.83038550371435,345.5634696863863
-950.8802700208532,379.7994218209073,384.9500084126588
-969.4105530430882,349.2375072017458,412.24781143407796
-976.2457108186793,357.24024004119656,435.666613981329
-1000.6199874574908,333.93258656116006,403.98301152789185
-1000.1845686345491,357.21372741965916,411.7603870842745
-988.4323392799786,345.58590344307186,419.8253226127169
-983.7885516460769,341.8924913196658,443.45418669984144
-1041.7522803403815,357.74601928283363,434.6836075520183
-1099.7741328588256,385.170267114662,421.948371768137
-1188.489443387905,412.8677988915685,412.67711195974164
-1228.278770018304,389.6794522084504,380.76203392595846
-1202.6125129376496,358.2477196596188,349.8554552268104
-1154.4819076850913,311.0256815528239,303.63987702222477
-1171.500971279693,275.9841536100503,264.25741716080415
-1359.9343302758843,312.2952282379814,265.236344725263
-1649.7784666527307,357.7959853772695,339.2340911524323
-1787.4911412154,366.8449470512357,364.612788261027
-1786.7773398663155,390.1933891797913,380.2440180897657
-1684.2958604620335,439.2050292403625,326.6691479761183
-1592.9190906170816,410.1828861027976,190.77360770497572
-1493.2112393120997,354.2249391994208,78.641941947556
-1380.9302871010998,286.84617071069124,-1.865999092452571
-1350.7874758454725,267.12791830033706,-17.046391989109434
-1340.7024824991206,270.53071130304437,-60.07760040380763
-1335.9506049466436,301.6218586367414,-40.48824012277384
-1370.162083892053,309.72962224612894,-29.254230547638592
-1419.3327996818489,306.4869246888591,-2.5074413790642067
-1418.761758602581,271.87367755553635,21.16563760305507
-1376.8616194113179,279.14731330270786,6.070207461263531
-1268.6391377279706,305.429478976001,11.527279957987695
-1140.3792324596066,324.0301224169314,40.85798922159963
-1060.576241631954,319.26294912125957,10.672451856648296
-987.3065725808508,268.50657462028323,23.71513207874249
-930.6766326931216,217.5615526199059,1.187530910147706
-854.0439395716174,212.99526341819072,-9.42303436953496
-808.783835458592,189.22057991261036,-32.21263122473016
-769.7858086094641,196.76342074000806,-19.8799794017325
-739.39418659787,211.86337842178523,-35.17419302208196
-730.4879851937206,227.55273207466362,-3.6967669897467537
-726.9893388669934,235.15777559105302,-15.443907960414618
-711.2755120250035,258.28493930139246,-11.361881988242672
-696.053188397669,269.7037214543193,-19.02168426526898
-688.6459698265974,265.70745361565884,-26.746442465061975
-688.0728893149038,250.40355269128605,-7.063135729326529
-669.2968546853411,238.5452728505657,-18.515701080389327
-665.5514370350733,223.0404878322363,-18.407305246949775
-661.9977260328451,219.07379176375218,-26.189983327639922
-678.6660072501824,195.70699474336294,-57.757746019282834
-677.9562847659497,180.43776417023145,-34.14795062534097
-701.4046590833772,172.81028689715654,-42.322607618299834
-724.7163914282655,165.2174799753229,-46.57084733318718
-720.3438483070163,161.4557468656473,-30.79420597247786
-740.5668602427945,180.67433833164233,-62.55887586484682
-774.1838446360379,177.34700432869533,-31.654234626503445
-847.2087817960263,185.6842040860029,-28.85164658675491
-938.6559120596738,198.24404868125202,-2.79143234437856
-973.4731024355923,198.47756369402396,-7.238373960526786
-1008.7542636884157,190.87048074520862,-23.439706729617154
-992.8772822523493,217.90111811882755,-15.44380598879332
-1008.4544671218001,214.11695125246646,-19.5889523945486
-1029.943966594097,253.3250396414678,19.203091779557752
-1005.5941631443972,330.69192843631623,38.929909806100966
-1023.7135005328017,377.47038999046566,62.04830395700877
-1127.6837656080313,409.18968251135715,56.45944333691934
-1285.3216949722894,441.3933402334131,57.914170486353655
-1354.8969321837735,449.5979768830335,48.99501868629961
-1300.1075800604694,453.2556989389853,73.35114437652003
-1171.2766337128378,437.24309524659293,126.35507538252106
-1089.7809139716417,421.3151279998777,147.25211973507774
-1042.8331795261379,405.6879770359909,171.5560359551937
-974.8119898232324,394.22534708590604,247.1812494582758
-920.6181519683074,409.3181667541923,251.86684545690937
-896.9250457597652,451.7638541193987,259.92770212049993
-923.3815829054774,467.5500808125099,271.25267038183273
-977.4663111256139,467.93247439237666,266.5160885725503
-1015.5374159371448,437.45111735404043,285.6714576333407
-1057.51709299302,418.5720913869671,300.8050659501461
-1069.8352648457935,426.19345036276405,277.04771762018635
-1077.6564881993343,430.0877465801268,272.99230624117314
-1093.8087930129045,441.60748063813844,249.1635777763049
-1098.2547557014884,433.76280381169926,233.42527774520354
-1068.3566763369756,398.5346678019508,214.36882115707203
-1069.1724493073577,340.401666216292,202.77872668036488
-1023.611528911504,301.2547608000694,191.8198365394911
-977.5081194903461,242.9351511474357,200.555745336073
-919.75955091698,196.13221640417476,209.42829610519394
-849.6877119097755,141.70894240132975,242.05819520427468
-770.2915878511011,117.52943155919709,204.08294371676365
-713.0069901546401,101.50530507359802,193.22092661612274
-721.3961954388095,120.7027884139844,169.48295289420957
-731.5943772848017,159.75384050618715,200.59551426837913
-731.5678646632642,221.55068244507558,188.61384876588846
-757.916311890401,272.120448879077,195.89768167518983
-780.8201577500982,322.55867192160423,191.45987671630988
-787.763405444265,353.7038642145891,206.9493659914446
-791.0999168931288,407.9303329883294,210.6407386824247
-825.6999077156829,439.1142744974074,206.09280437254316
-848.3855343058028,462.5728459769647,213.52347641651332
-870.4705480464788,493.9066857693504,236.6343246674451
-920.3744397934057,502.0654351893869,239.7842280493339
-954.2647081317272,498.66978020017035,262.83593275991296
-957.8999964309933,491.0300663325397,270.6561363972407
-990.9714326502934,449.2206818842317,325.24664385901406
-1014.2270806034683,410.7467891685745,328.9522925769759
-1032.2893138839463,388.02445279478724,368.0043643853916
-1016.7162078793473,372.4992734521983,376.1396603325295
-1001.7386161431275,349.0998455129938,368.5937603564928
-982.49861063666,345.0821636338608,368.89559635553434
-989.523435627865,345.31261949799375,388.41296467193183
-992.4500211591114,361.0223674751317,411.8633784217852
-996.7674996048602,391.83105341783386,392.07170644409666
-1016.499008325983,422.75802644124144,372.0485588860621
-1055.3043088108582,461.6061550070616,355.6382658706083
-1121.0658073858046,465.9124165744674,346.7891685743858
-1172.4697016820219,454.38554450296493,310.7360821483382
-1236.2427536416617,423.4330785742328,254.9412898390378
-1403.1193118954995,393.5237823313772,225.0697230960624
-1639.9076137111044,388.17842994294693,284.33460967812664
-1838.7624724039301,393.97041803266154,324.50734960460505
-1861.5837212503764,398.08599266824046,332.0012440537799
-1689.649370580168,400.23963331004984,291.3981838854247
-1496.4437397072397,332.2347590665518,212.105051164261
-1361.1783840557173,264.64286988930985,128.01721280967507
-1301.4332111373408,244.37906930501242,77.96046560242286
-1295.7737861553132,243.80598879331885,19.177904789097195
-1311.681359077769,270.8356064507248,-0.7746355789183872
-1327.6399178108734,348.0556561109044,-32.67119760570633
-1362.1879031065655,386.97618452784593,-37.24452284929105
-1419.6897003563909,429.9786369453381,-38.25098275150026
-1469.8903295212945,453.5096082760168,-46.93162292933877
-1476.232964366017,473.2197029566672,-11.771501990995906
-1421.6883441338277,461.3685611294377,8.708621190722623
-1314.2000581238244,421.81376922802394,6.527519591297743
-1158.8870817251561,413.1941080797215,44.2045958609719
-1083.346504667751,369.7348227988151,10.161196738947552
-1036.3681787358578,319.3577827290665,42.43181922470977
-982.6362723254119,326.61102415197854,35.36294249310417
-917.0185537364952,341.5794384422815,36.295269026629896
-864.405276011686,248.142841847114,17.77559105300995
-799.7409920819038,224.25293040946707,-0.7983653949105964
-773.856515731672,185.1529319390414,-23.82648508919968
-765.8231914058318,212.20804250177176,-19.87273941662036
-746.0386574416341,266.2560609382409,-15.834153355121272
-726.5263877063014,281.61604625432744,-11.669020511591626
-711.3040640789669,293.0348284072543,-19.32882278861793
-703.2962326584512,277.6034629562593,-7.3829289308785375
-741.9128856439254,246.98546394538403,-3.9334533199410604
-730.3513432211817,227.58638270969195,0.2297818317162334
-716.1099865907319,196.27803582263059,-26.92356717125624
-677.111959741604,203.8208766500283,-14.591017319879878
-696.7058067739749,157.54513518887697,-14.728373093768006
-674.1303095348566,157.2290231628538,-30.087644608505457
-659.1251854608863,137.69839853568755,-37.64629103720435
-667.5409033665932,133.71844615643468,-57.381980594800474
-679.9192384759322,114.29285229920515,-77.12501210913004
-694.8142331989008,110.67999775662433,-61.637460294799965
-690.1704455649993,106.98658563321828,-38.00767846308373
-720.1521416589765,91.989313374088,-10.933907093655836
-751.6338403022439,95.9250100696976,-31.041793068988905
-766.1209485400215,111.72418715871373,-7.764384371829322
-765.2766235156757,135.10729963851063,11.792508144983252
-803.3752606649571,158.68619763119924,18.991500665364832
-830.4589232816508,182.03769890839382,10.657767943181414
-858.2788210041147,216.79166687910757,-21.273115691902944
-869.4855021847421,228.55511311202093,-13.631464363467648
-860.6068331183433,259.68500966181114,13.868854297848909
-917.535549856475,268.07421494598054,36.535514166407495
-1067.1126225571425,273.273747915955,53.90056747207253
-1276.51134689216,301.58616856928717,7.497697990649203
-1356.4774923138891,379.68725303747976,17.8102614042512
-1343.833011272963,457.11022622404187,33.43700448165276
-1261.4603355886059,487.7425012618989,69.88900389021737
-1167.4730922384301,487.4049751954032,114.46926320405032
-1069.264223766526,483.2710456679907,170.8983189978229
-1024.3661189091079,471.9868660551769,246.17682898849253
-964.8432441251601,483.5575859238374,294.1249050389277
-1002.7236620048642,518.7765444876692,305.21227942263675
-1074.7400998302173,554.3993106718401,331.486287366226
-1173.5709951920383,594.1335726267381,361.2681190824594
-1258.3196096526337,579.3476875385581,363.9734261954898
-1292.918580758975,533.2932244956229,375.38507033492584
-1317.0654606822923,483.0079588850424,355.56892516812576
-1305.8689766637947,471.243492935916,347.92717186806914
-1282.9865448445698,455.55617871546355,344.39895377116557
-1220.15163180087,423.4850841010947,274.8043419516349
-1137.6667873330855,348.87958681099053,225.271626906232
-1034.655055498055,239.68429586046204,219.33381939806154
-959.165464251299,130.55936532862907,197.28551544105278
-862.4729137880928,64.25221660811796,222.5051368204229
-811.50545803103,33.18921344189913,254.76997751525752
-730.0923353030853,63.58256897105536,263.7363421759725
-697.5205600281442,137.1579489428092,299.2979253873647
-678.8546547495832,187.06286040594904,271.93689996074096
-656.2801772266779,263.98515293193907,240.61835591154983
-680.2486068127241,337.32824155037656,200.76580687594645
-672.3794567971735,399.09959058394054,192.82629644170032
-672.8444473902914,468.4973971743664,165.11244920538616
-679.4613858963052,507.4495367939103,188.42928013133948
-694.2482907006981,519.3108757832696,203.86676387961234
-740.406764797357,492.6554939760265,211.11490672145942
-752.4312583807927,484.90463104118123,199.18626646204362
-787.3300260537493,454.2223899088884,198.7671630985097
-817.5839863765916,439.15710257835246,217.98779399693066
-859.8083953235815,404.7681930118848,229.24546098820701
-909.0025645862758,378.3473459336267,259.9950033905564
-962.3235253628916,351.8887693554884,282.83256769641014
-976.9187235192446,371.5223853201655,302.17148567553653
-1033.6047477986879,395.42045448751617,328.71367898313906
-1071.4056278137796,422.9354570622996,343.7534734083505
-1097.1534621914723,442.76077967501647,374.6977816073787
-1112.51038835892,450.61769309601146,374.4408131217083
-1100.2941881274444,427.5211208720613,398.25016697852993
-1058.037148261639,407.8507951237171,398.9486725844198
-1046.6469181626753,403.85860614990855,395.20835351521674
-1046.1778487047054,392.3888381863328,410.952771843596
-1076.4328287437609,454.5609356915971,414.21484400891234
-1103.3839282527672,497.256453528983,405.8174809950391
-1111.9699387660417,508.68237369540066,378.1780730422724
-1175.7225964014217,500.9080572876569,318.3798748808207
-1403.0173402742018,471.7829228125814,322.9227106096374
-1718.099452922252,486.0344766051609,341.7028241040519
-1920.8598247107832,484.11842984097535,381.84293311171507
-1890.3907042670025,491.51545124991725,370.50062967476157
-1657.7322531139584,419.58466958645414,319.28334344551917
-1429.3260185690324,347.58046835565665,256.229191416029
-1302.2387869455931,233.58945205549298,168.25113570893222
-1289.6248973910563,182.5608133256515,97.96892924699057
-1305.7466107182372,178.64000448675137,78.11760387084276
-1321.2157056691124,209.64039707749336,69.93203591440503
-1337.04170129453,228.96605874585106,53.93136290170446
-1336.5828289986898,236.80665670743835,65.68573366032234
-1371.457123482535,248.61191130508382,57.27429856271
-1380.4714148052599,275.3764027471155,13.878133715387008
-1396.0220870531734,314.0797316106928,1.7407473500124917
-1384.213773306889,348.8092263922951,1.8004211427959602
-1307.143621930017,386.833424258029,-5.022683587157695
-1217.561552619906,386.38780827295767,23.793038397414005
-1074.903254424294,377.5835784901063,29.88431319563766
-960.1158397617945,318.5573055018789,20.028959940448576
-879.0290262220025,302.52634691765286,29.14685443041202
-829.9694594994214,251.67513880886955,10.43016728444474
-813.9007714153151,228.54899481474308,34.296625249193156
-775.9938409140736,235.81753198084976,15.216817159784433
-741.2031631596927,231.71521365603954,19.676444045622105
-718.7632881769005,212.05610478603805,4.380374541765027
-724.4165948616501,207.7732966915308,-46.709936624637365
-727.4247576899351,192.5672885236039,-19.231337918657243
-734.9410858957953,200.3987090392744,-15.445743449597979
-739.2034996660431,219.63463568089003,-31.272962734470998
-757.544115472664,235.4636904549464,-8.053351552263006
-755.054988196785,254.4018599623725,-51.25073292102808
-789.3266303987601,235.46267073873344,-36.001794700534845
-764.3425634645879,242.47831828402158,-94.52055492956312
-790.7991006103002,238.95519876818284,-79.2064568430606
-829.3331565825232,219.94258997720934,-75.79489428092162
-861.087119454656,185.19168115513455,-95.77643741746674
-859.4514946490393,185.60160707275168,-48.657798534667805
-867.6765256229193,189.3939316688166,-64.49225780465298
-867.1034451112256,193.3993769533939,-48.79872331530135
-882.7356946561773,181.87760346295627,-52.91868273059609
-875.2193664503169,174.04618294728579,-56.704277199655344
-890.4692224154018,178.06896340748372,-53.021674068106854
-886.5076249279825,193.51358516924742,-53.014434082994704
-894.760188239613,212.74543294601116,-72.82599052683639
-932.4223868497398,240.29510587203583,-53.85998276679601
-959.9149556678378,263.5446355279326,-73.97337520967916
-958.7698143606635,271.5565458133002,-42.58630623097592
-931.1416232862396,286.9593592103318,-26.52587784819485
-934.0682088174863,302.66910718746976,-3.0750052260455916
-1007.4204748818405,322.5097255433813,-12.089959364308914
-1195.290950528468,324.20755303798956,12.562597829024185
-1346.881962749767,332.76297206487436,-28.98318997822906
-1296.9260654759782,332.3418292689145,-32.15807640733584
-1161.2630205013945,346.94620487118436,-10.5521253435169
-1089.311844513672,385.680125221151,57.11359128754468
-1029.7910091621504,416.55917158254863,101.07172173983982
-962.1522130391113,408.86337332320414,164.90442709793865
-909.7928446513337,382.0111862868564,236.42324341135864
-862.1058159514209,374.2929542708265,280.3342629746142
-903.1850835912367,367.22530119867645,318.98864545996855
-999.821549662729,383.34089622857965,305.7129600832089
-1067.5511005287228,422.90588529212323,343.81159723249027
-1132.0175595131877,454.56705398887493,366.2861425665238
-1169.5227218265156,486.01918086196616,389.1665349533225
-1223.0884144942465,482.66941310233364,400.1488785670948
-1234.8151509434927,459.5463282568462,400.05098581064897
-1225.0258752989046,420.3943242595586,357.15968246037136
-1156.806860650681,373.2283705444775,334.79220732870044
-1060.851565009458,318.32277077289393,336.41559553976134
-967.1824731177313,228.08502393783812,279.2533637888576
-856.0588988084618,157.55023376994185,277.2312665385224
-807.0798896667059,75.78388134582147,262.5422544905753
-749.4679630658788,28.947092024289645,267.48787812351827
-702.6262791065247,17.154787822548986,287.85263061290044
-695.1650155761653,40.20506493042986,276.11263785288554
-682.9243421555782,117.5243329781322,279.9600271244513
-701.8931031493936,160.22902826143485,279.5317463150006
-720.72522217067,241.58708631387887,275.05009355896254
-732.5600485384919,299.5365389812016,255.0544783386784
-740.4037056487181,338.1797045882131,243.03304390388158
-752.2650446380774,372.95100773454755,227.03879510332277
-767.2977010497979,407.9231949748385,230.62105815951426
-774.8130095394453,396.444249565346,238.39639428347095
-778.5574074735002,392.6396883747254,242.27743419006492
-786.3194872866882,384.9622450072145,242.18667944710987
-816.7651542575702,381.43402691031093,253.51674628950764
-881.2101992015622,397.65363299393783,279.96920457036805
-954.3442459963393,409.82598542825536,278.8322209928977
-1038.5503714316305,433.79543473051456,289.2639178516619
-1087.2010319528076,465.4392682516456,323.75072017457546
-1136.800028552054,438.91644955208966,342.71948116839087
-1150.85171796689,420.0680150714057,385.7433476263556
-1127.9183003370163,431.42765368397977,378.19948708274495
-1103.7612232515692,443.0942268766603,405.9949116160973
-1068.244507553548,446.9008274997069,430.06123395858936
-1044.5768942503303,446.85901913497474,446.11462629950086
-1029.5156857846462,454.37432762462214,434.54084728220136
-1059.9338204177777,474.0242590487068,441.8685279886608
-1102.894464470538,508.96483508639557,417.5595131874799
-1135.5253832858316,524.1993953082858,362.07471460692494
-1191.130508379518,501.02736408457537,318.1483993004747
-1319.8798774301113,490.0266655789694,273.08612013276706
-1597.059138441772,492.2374103287056,276.7764731075342
-1841.362748747024,533.3421708738458,331.8472669056202
-1879.979401732498,522.0335180719206,331.30783702895485
-1698.918590956137,474.27918810195126,342.0301530084178
-1444.825705006297,394.02140384331045,244.06601642762823
-1289.6962775259647,276.2268460687391,187.91840230863752
-1241.0456170047878,225.272646622445,157.4217495271066
-1276.4093752708623,225.3695196626779,137.2690980100238
-1321.888718369678,256.81348880606527,152.18040819240008
-1370.3150413239998,280.78905640560237,194.5445182605681
-1398.245068397465,338.68548382985017,154.68483121147386
-1425.0330133123953,404.5938215394656,146.21200919784027
-1464.1901158907478,451.0765653918515,117.99646158474097
-1499.7476202372882,482.0208735908797,85.96207675403936
-1500.6245761804491,454.7689577990446,66.4178899012405
-1446.8345459458633,411.83074750297,71.29305114386668
-1328.1089872688433,345.070946755518,65.4473240097281
-1208.59824710783,293.9576715799993,79.18381914313248
-1108.9821702620163,269.8699351970347,68.98339392147166
-1054.2641982736207,242.61088139170872,97.3671947097123
-1020.4606058134024,253.71049236997345,70.36388573060118
-989.4143259930762,245.8036128545426,78.70485843789675
-912.4267716294557,233.60168865004871,79.89915006653649
-874.5198411282141,221.56087960720532,64.80918560364651
-859.4331397572057,213.63666491615388,57.212605731824844
-809.8290445768943,220.85013740675973,42.23287259155777
-802.5584679783617,216.81919921685795,30.581493170450667
-780.2011900088206,224.17339254485478,7.343843208435094
-784.1097622531651,235.7747038999047,3.321542014857265
-784.0812101992017,220.33416100299291,7.298659583038041
-772.4941748711335,204.80388307933902,11.449271667694882
-771.7028750898626,201.14106244232232,35.02113361851397
-787.4442342696029,193.45342191268173,26.962112444106808
-780.0910606578191,181.7195474499447,19.262541234774368
-792.7416599960233,162.22563260644563,-8.333508384616563
-808.4830191757635,154.539011793018,-16.392651924969282
-831.5214675755738,127.70517964850383,-8.79792793665523
-839.7189662117034,135.36528784039405,-24.64501129335706
-838.9551987681829,127.83264417512606,-1.060484467172786
-843.8447380094121,96.70764226315818,-24.576486363844946
-825.5591868782918,92.45073496046051,-51.760489055895746
-822.5785563877573,123.09708208205659,-83.2161849357324
-845.6445371253182,131.01313904340424,-83.58848332509064
-863.576246730535,146.9441654387584,-48.58917163353439
-871.3658588814734,154.7072649681594,-52.65671763548205
-889.951206579209,155.02745585903446,-33.31300699015465
-866.530364599532,178.09547602902114,-29.115447171052296
-876.8917010396008,213.2420347417314,-1.9168625371559096
-860.2244395384765,236.60883176212062,29.650900154487008
-860.3335491732652,240.44398443913065,25.71173642375327
-941.282701024305,237.20026716564783,24.51010283838008
-1091.6266003171318,249.93244380089024,18.2906497121851
-1199.6247444336243,273.91005083285324,8.742638923587567
-1136.718451255016,316.2292933876503,37.01457684326452
-1066.021526209256,370.09478262199633,65.3641151667491
-1024.682230935131,459.3250498386299,128.47608510551515
-1040.89571872148,506.5827780128791,206.56595269536493
-1030.1071211881736,557.5002676755059,285.04841102721116
-1024.0194153966952,585.0652363447252,343.91662800242693
-1036.041869547705,558.00502720093,335.9781372843938
-1083.3159131813618,488.5878460024576,319.8054381465638
-1118.5675026640088,407.6121815298803,319.55050909331936
-1158.3568292944076,326.49579621991205,299.6048599674711
-1185.409900424712,257.1703894806076,311.20821075494695
-1212.391591420108,238.069065379105,314.7925132435644
-1262.3474886938966,238.4902081750649,317.9679095307776
-1289.1864194194757,258.04122712649075,317.4998597890208
-1289.2068137437352,273.4827897396155,313.52296655840684
-1243.1360352413926,307.8411078196938,302.32342339127024
-1185.7158152886054,311.16130380914996,291.3981838854247
-1117.1398999658395,294.9794272254032,272.85668398484705
-1055.6510123232706,271.29141959792594,273.85804530599137
-958.8768845630262,255.209475203051,291.05963810271606
-893.9943813636665,242.96064405276013,276.3747049196209
-813.5357130110691,234.4949600526174,265.834918142281
-767.1304675908696,238.04153304135463,270.44199599251533
-748.8999811352502,264.6653036459953,235.30359500950888
-751.6083473969195,292.0161319104894,262.6432063956601
-755.0264361428216,334.6361907481148,266.37332830273334
-793.7532184792973,404.39905574278686,245.93515624601676
-809.1682684708846,462.4464011665554,233.73425175773585
-824.6098310840094,478.0062508603856,229.52588294677594
-844.3138074673819,493.4926809868814,213.47962861935525
-867.5980074745198,489.768677377086,209.2192542815335
-914.4672237716245,478.3825261429744,192.85688792808963
-929.9352990062866,470.76422631581636,192.6509052530681
-967.297701049798,482.9416773311988,223.4473546012145
-981.7297446120746,487.1684010339923,250.68907323091986
-1045.1683296538574,472.74757435005847,312.58176849382824
-1071.5381909214668,480.82984505412145,327.8571173642376
-1066.490595667226,477.2394242682262,363.2667628598961
-1084.7435158795308,446.74583063533424,398.4174004374583
-1068.835942957075,419.7172326941413,418.37018757679743
-1052.3369346310924,419.87120984230097,450.0140210979285
-1006.5557555332351,411.6747309223843,438.95315933575694
-971.7926101166047,384.39426307658584,447.4157841872607
-976.4098851289688,411.2648050047672,419.78351424798484
-972.7205518704146,426.6421254964744,411.93781770533263
-988.1896468212898,457.6425180872164,403.75153594754585
-1026.619691739789,492.72381496229605,399.1332412189688
-1078.6762044123122,504.2037800880015,339.4451724085187
-1229.889921634809,489.68506064762187,313.68204228763136
-1445.1928028429688,483.7503122880903,326.17560532903696
-1698.6126760922436,478.2163124002591,349.8707509700051
-1825.2410354198428,479.3349410858958,363.66853104780944
-1788.3884914828207,451.58030520106263,321.1433058179909
-1601.0972146451645,387.94899379502687,292.7666430432411
-1438.3199155674977,320.28572448287645,224.78930113749345
-1359.5162466285635,268.92261883517824,175.1230032681905
-1368.1532429524864,233.99223995961927,155.48836758730047
-1407.3715285036176,253.42803097897857,131.2874427046953
-1426.4198273620455,284.52733604237943,130.89791111133775
-1447.5177558085586,276.4940117165393,79.58864647968471
-1440.3287565070643,318.7847022173729,56.00587356538676
-1449.6999485043314,372.49315515492043,-3.184961225291002
-1448.884175533949,430.62717645679214,8.405021082632704
-1429.529961811628,480.7034002437122,0.6766643043241066
-1401.9262439263155,492.2374103287056,16.749654571132854
-1339.5909918269747,453.31382276312513,45.28712659266927
-1235.763487021562,421.5608796072054,46.949467963065885
-1143.9890278535486,339.56957778650207,44.67611263785289
-1067.8978040411355,276.93758826918474,30.32870552125344
-1006.8463746539339,249.27778599215844,19.562643716253767
-957.4604987432,225.54185170267115,4.6840460299898545
-893.1235437177834,213.15637857984126,-25.707453615658764
-851.1713989996584,189.54790881697625,-32.8486282267645
-831.6856418858633,181.73076432828745,-24.68110924729648
-816.4357859207785,177.70798386808954,-28.36371237884497
-808.1556902713976,181.6542856123141,-12.55454207094166
-811.4646693825109,181.8204993550295,3.093798595850775
-784.0536778614512,204.89361810608114,11.275817939867336
-742.0750205217888,185.15395165525436,4.121947861910031
-708.0756425486788,184.71547368367385,-14.990440160503333
-704.4678865871629,188.48536452305328,-22.798305231654034
-692.7156572325922,157.54921405372886,-10.744035934799346
-669.1316606588388,165.21034196183206,1.3572320823114927
-683.999123044057,146.15694452233947,20.821891267660213
-707.6096322393479,96.00821891267661,16.71284281584435
-723.8139425797801,80.48130605252558,-3.1006510888019867
-740.127362555001,49.47948585908542,-22.86356706928462
-716.4067240087085,37.8658359378585,-2.8459259788001003
-720.586540765705,30.08968404093141,-10.731595397001016
-735.7283068122142,49.58655606144811,-7.099509006643452
-750.8150081832227,57.511484553848675,0.49700764277301634
-788.314052199273,69.65457113285373,27.36673583741645
-796.7297701049799,84.98376101930833,3.641192456139457
-799.4932010421501,123.90571703894808,27.016259375015935
-814.144483590217,155.11209230471164,42.39001085997768
-829.477956284766,205.45548173943192,34.14122049833532
-871.6207879347179,221.29167452697916,37.38116482183009
-885.7805672681295,244.89708514120522,68.48638423926623
-955.5250773709678,287.8179602616592,47.673772389144105
-1120.9536386023772,289.166025095216,53.04053881804695
-1285.7805672681293,356.3163771522386,62.118868318946845
-1338.7242330459435,422.63769992811007,76.80064038178176
-1337.357813320553,480.9083632025208,104.09670988563883
-1293.0103552181429,508.1062340350681,155.68925168125713
-1199.2372522726928,534.7473398153295,188.4007280773761
-1093.7782015265154,542.0230149949269,229.20263290726194
-1061.6469436555808,553.6987656335242,264.96611992882384
-1041.120056288335,557.726644674787,300.58174809950395
-1058.9446956911893,550.5141919003942,343.5097612334488
-1134.3731039651666,551.5196320863904,389.4714301010029
-1218.7954092376092,525.2303283996065,403.9942284062346
-1288.8193215828037,471.5351317728277,395.27769421769926
-1309.040294086156,432.8256846119726,375.4819433751587
-1328.955351725615,378.7440155404751,367.5169400355881
-1299.251018441568,355.0539684805719,340.5699193914334
-1235.019094186088,385.12234045265205,298.2588345663402
-1116.21195821203,363.7317534530141,174.52341013495945
-1068.897125929854,224.61390994886128,234.57041905237773
-916.2598848740397,165.118567502664,205.66044469824052
-871.9318013796761,-43.26441751260625,305.14293872015423
-797.6434358318081,-71.59050236319233,231.78353464230906
-762.0400442556837,175.5349686182336,207.93543156939424
-734.3058026951101,341.5794384422815,196.01698847210824
-676.6673634727456,317.91998286876765,196.9602259691128
-635.5585240627535,193.69101579030558,186.22159453024227
-588.1427398754927,127.97642416115596,234.24818872907673
-595.4418685279887,166.75725145691956,237.93344312277898
-628.8977377595816,263.88012216200235,252.80294494042312
-659.5361310947164,368.4367240596942,236.29271973609747
-690.092947132813,465.29038968455086,223.7338948570613
-686.2690113341458,557.9387456470865,203.85554700126957
-698.2384402420807,577.2348355452677,187.91330372757264
-728.6025299159245,546.6943349665788,207.18390072042953
-766.5635053764539,531.6881911763957,226.289303686784
-808.7603819856935,520.4774311309163,233.54458454212198
-862.5453136392142,486.17825659119075,244.62788006097904
-908.8669423299498,436.3100549117181,251.95148190258655
-942.9478976000979,405.83379645444677,275.09190192369465
-1024.3355274227183,379.3089383224649,266.113300668424
-1069.0194918754112,407.0890671126226,304.5963708299981
-1114.0603570026462,423.19446498039605,335.26433593530925
-1155.5526097087184,435.3331667796853,358.1498269031729
-1170.1957345270812,389.30113749343565,389.4826469793457
-1142.9795088027004,385.29263306021943,397.7525454665967
-1135.056313827862,377.5642038820597,405.7471205763436
-1147.16034527591,396.82562342899973,385.87795016646874
-1194.1182768835436,431.76212060183656,357.58388440497015
-1213.9823487123533,501.27413540811597,325.6545303442052
-1233.9076035139421,543.7391973813689,297.74081873014745
-1227.1468850218985,524.1310743220163,274.3607653989895
-1296.701727909123,497.5858218657748,273.40835045606815
-1551.1719088577652,480.205778731779,269.65477507609637
-1803.0724049497026,517.535549856475,328.54950467284954
-1876.6143382296711,568.2236033711819,307.65449975271883
-1723.9220324983557,535.7762334742242,274.72888295187454
-1451.8515497137148,432.8705521253435,255.60410537747347
-1285.107554567564,303.4145197391566,203.59347993453423
-1216.9701172163789,225.33382959522365,185.2549035603392
-1227.0449134006008,197.7647820611524,122.40265534101862
-1238.6390867421599,213.29505998480624,118.25241035419843
-1230.6241173081535,236.4823869517114,122.2180867064696
-1203.193751179047,263.4232892985882,130.38805300484876
-1234.0503637837592,298.4117919982869,121.95805907216022
-1265.008948009769,356.5437738677327,105.5997715835683
-1307.7554516578039,422.4337566855145,81.18970290568136
-1311.6609647535092,472.65478017467746,69.18794899379505
-1277.204753916985,460.74653423952117,65.81972437070765
-1197.3711716029431,401.9191059128245,47.590869461029
-1086.8441312782654,342.82043307347567,25.89803857586434
-1006.5741104250687,249.34610697842794,27.41578418726069
-918.32481020532,175.19030453824703,32.91246246169692
-818.8158035618688,154.93568139986644,18.772873509302364
-783.6988166193349,158.63929068540227,31.060249932443806
-735.049175814371,165.6141495821713,-11.405423870536831
-734.6678019507171,181.15768381659387,-3.6028613236936167
-726.5253679900885,204.37866141852726,4.290017488133054
-722.4536411516676,215.98915021949392,8.236451795465323
-756.807880366894,224.06326319385317,15.543840149286456
-784.3820264820301,216.3970367046851,-0.5417894999821551
-780.6641411695126,216.3327945832675,-4.410517353020655
-773.8300031101345,208.33108146002968,-27.828871225138045
-770.5485563367715,184.985698480113,-39.474846150316374
-779.2090061335931,146.18753600872878,-59.09673537854415
-795.2776942176993,130.69498758495513,-74.98371003349769
-810.6917244930737,130.81327466566057,-75.21498167060108
-842.0367811638022,134.7840495989966,-91.39634839624134
-845.836243773358,123.24188178429945,-87.48971361270159
-825.969112795909,130.96725181382024,-71.51973405801166
-833.2937343537295,146.5699295885955,-63.832807329720154
-864.6132981191337,154.40848811775683,-80.02692050802263
-894.9763680767643,143.17733374801796,-64.7453513687141
-930.6674552472049,174.0869715958049,-100.70574559100203
-984.9163577776307,209.18560364650523,-117.33568547873129
-1015.7984632876671,182.3762446911025,-113.78299419271619
-1026.5992974155295,155.62398984362653,-86.38189391892237
-1048.105112347234,171.65392871163957,-43.58736163725636
-1024.029612558825,210.33380410231834,-23.734200771925174
-1003.5108829212832,233.6710293525312,7.8914410119663705
-955.9615159101222,264.5368194031601,39.896498804382745
-897.668418879026,275.7995849755014,52.50559569271873
-939.7021408941893,287.80164480225153,59.684703746947235
-1117.8333069906646,281.22753437718285,33.49084549769799
-1338.0512203453782,298.2272233637379,10.511744581482974
-1411.1648728158957,333.57670560283077,5.372792951721537
-1301.5453799207683,344.7599333105597,54.072389653959306
-1226.8817588065242,317.5243329781322,102.37848806677103
-1187.2861782565913,313.6320761931955,134.38126169487035
-1158.6729413204307,275.215287585465,189.884415167259
-1067.8366210683569,278.9464292087512,254.02660439599666
-1023.9786267481761,313.74526469283603,289.88696445779146
-1054.4273528676972,348.8367587300455,293.2377519336369
-1119.2813040130932,384.26373940132464,303.9202989807937
-1145.0495327150456,419.52960491095337,330.887713949208
-1148.1188785161091,415.89635604411296,354.40135010426604
-1135.5763690964807,400.6057114305089,386.0380456119063
-1158.1732803760715,397.05200042828085,401.4102675225485
-1128.163032228131,415.9177700845855,374.3235457572158
-1085.9161895244556,415.5567905451913,371.03292153793603
-1021.3069702701738,383.9302921996809,352.4842836238675
-930.0760198436776,282.4919824812755,338.4947968980233
-801.4286224143822,195.92419429672725,289.6942380935386
-725.6392346010106,110.04573427215207,271.4953628405215
-639.1081562001295,43.182738243946716,225.92220585011194
-616.2869073536835,-18.86118093334625,230.39774030887207
-589.2032447369897,-3.594550636557846,230.75158183477544
-603.2274018140752,39.354111750699786,261.7937827902495
-602.5207384784816,159.25010069697603,257.475284628288
-635.8124333997849,221.65673293122524,284.23875635410667
-635.3770145768434,244.93787378972434,292.0161319104894
-639.0948998893609,302.9301545379921,283.9155063145927
-639.3141388751511,349.2181325936992,268.05687977035996
-645.9310773811649,388.1702722132431,291.3747304125262
-666.0714923036919,399.6849076901899,263.56197070355324
-685.475672120449,419.1094818312064,255.35631433771982
-696.1092727893828,434.87837334869715,278.69150015550673
-730.3809149913579,435.2495500502211,289.95120657920904
-765.0624831109503,435.51671569802124,289.4301315943773
-815.2386390867423,404.9884517138881,292.7064797866754
-891.707157897957,374.8385024447697,315.2105968908853
-933.8765021694464,348.1882192185915,326.44277097683715
-970.393559472399,383.7487827137708,376.7953378574743
-1004.7743113091627,368.64372645092874,388.10501037561255
-1022.4082637801902,369.2035506518536,434.9344577404109
-1040.987493180648,369.52272182651575,454.2784743006022
-1075.3417323958745,358.2874885919249,465.57591022418467
-1075.4233096929127,385.29977107371025,457.6343603575126
-1071.517796597207,393.0078059276104,457.66699127632785
-1095.7564509796923,427.66286142566526,417.93986733492073
-1122.1365094094315,435.74513212972835,433.2162359215431
-1164.5261123829239,474.69115345199435,424.6006536380925
-1228.0034466408001,447.6758118215701,376.6454395741666
-1363.2586051301923,452.4837737657611,362.8293046045286
-1662.331173234489,435.87157694013763,405.50136896901597
-1956.9985672987211,457.98514273477696,455.95794690337686
-2014.7145049532717,470.0371686559631,455.0524389062524
-1764.751469665992,428.3603473153422,341.19806457862785
-1476.0902040962003,332.3601841607481,243.80598879331885
-1302.4835188367078,237.3899343812617,160.38504484202048
-1249.5908388695427,163.32998526510073,145.72866371288873
-1296.3550243967104,167.41904727914223,129.31633126500896
-1337.541362238889,183.49487337673926,160.0424201944599
-1353.6936670524594,195.01460743475093,136.2136917295917
-1338.1735862909354,229.6808798111486,132.40403195790614
-1379.5230787271903,280.4719246633662,151.2371706953955
-1429.1322724885667,331.1864907996105,154.24737295610635
-1453.095603493548,346.6005210749849,126.36425282843786
-1399.5299108258173,349.95028883461737,115.38088949845259
-1317.075657844422,372.87962759963904,155.78510500527705
-1214.094517495781,375.6716105907726,125.92169599200543
-1098.6320507002902,355.43534234422566,127.71945567548552
-1037.8161757582866,312.26565646780506,113.07735057333547
-949.6260190788904,268.9919595376607,110.61983450005866
-877.5280039564991,244.97458357339156,84.30819902821045
-827.7597344658982,217.47181759316385,81.22182396639018
-809.2824766867382,182.36808696139866,65.91853487174521
-759.3510526020609,178.07814085340053,62.75629292367935
-732.8680028348111,204.78042960644055,43.439808701238455
-721.1443255342039,208.594168242978,47.52723916933918
-691.1891420617643,200.41298506625608,24.455751964228355
-679.464445044944,184.91737749384347,32.53292408722653
-656.8338831303249,153.72017967399674,25.127948891823408
-687.4437244114964,146.28950763002658,32.5437330790841
-668.8308443760102,130.5287738422397,17.1772215792345
-656.7523058332868,126.70789719221142,33.06949875849551
-629.341314312227,130.47065001809997,45.241239363085256
-629.0955627048993,126.67016769233125,53.1070243151331
-656.5881315229973,111.3010049303279,40.97321715366614
-702.6385157010805,100.1207343996166,48.17037418486436
-726.6864831517389,103.92845671049749,20.324983557076067
-742.072981089363,88.60691469564021,24.07080909382919
-722.6698209888189,107.80133888738764,24.2966762350038
-711.2184079170768,111.5467565376556,20.530966232097608
-721.4696150061438,123.54983608061879,55.658456251625175
-748.9346514864915,131.35882283960376,39.52226295421985
-763.6675113315965,150.9587881692525,54.933947882304366
-778.1821519071243,182.1988140700443,74.23421861695891
-801.7671681970909,213.15535886362827,54.15345709289105
-821.3345026079243,228.67645934136533,42.03412990164838
-848.3916526030806,275.20712985576114,29.69801104352659
-901.5769911233705,306.7102425395013,44.49348146410854
-904.6137060056188,345.5644894025993,60.015397714815975
-1008.0027328394509,361.979880999118,74.1098132389756
-1176.3854119398572,413.78758291567465,94.96056247546309
-1345.4747543758574,442.24582298746265,100.18099962780359
-1383.0512968240942,481.4019058496021,119.10897197309991
-1363.0750562118565,485.2931429183259,139.01791131528097
-1287.463099019543,496.91484859763534,206.83005919452617
-1190.8551850020142,496.239796464644,216.1288513406719
-1107.880876752,476.8182814722663,280.2312716371034
-1057.6802475870966,472.5966563505377,284.9219662168019
-1040.334874804342,476.82541948575715,340.1120668118063
-1057.6088674521882,508.3683011018034,390.7674894076979
-1125.6035445335565,547.8649691790775,421.0122722846233
-1178.7919422024852,579.3680818628177,435.80835453493296
-1215.583303166729,595.5509781627774,482.2972166845968
-1254.577251151005,588.0091570515926,469.9647688048417
-1256.6268807390904,510.25783524445154,427.0255387925541
-1181.6573447609533,462.79412439518086,377.2888805045556
-1138.7068978703228,380.50914430513996,299.7170287508987
-1052.8060040890623,301.9033003115233,238.47593214808322
-977.5346321118834,219.75700162644736,204.55813147201135
-879.1697470593934,94.94485884578323,178.980589701886
-802.9979656661552,5.300648029653348,172.57473245195865
-733.7164067240087,-45.45996849076902,181.63287157184158
-694.201383754901,-22.339942793920454,205.69511504948179
-674.3342527774521,4.694926401982329,217.67474111954644
-681.0072756751797,93.8376509817318,229.04763604288928
-698.8574079833583,179.3038397414,252.04019721311562
-694.7051235641122,221.8300846874315,251.9586199160774
-694.6520983210373,268.18638372940813,243.95384764420066
-698.64224786242,306.79997756624334,231.99053703354357
-712.9937338438713,361.2528233392647,251.21422708060348
-731.7983205273973,427.16931877858394,250.7104872713924
-747.0767285464456,465.94198834464373,246.4266594606721
-739.0709365583559,489.1293153115488,250.3923358129433
-762.0828723366288,504.78195918076005,249.99464648988192
-788.1845482402248,512.9335705873057,273.12384963264725
-799.9898028378703,497.5134220146534,269.07455655091195
-806.9055181942866,474.6003987090393,296.52123813942586
-814.4483590216844,459.2526499875085,304.3088108579383
-864.1340314990339,459.74211376973795,315.3370417012946
-920.7364390490127,475.9372466642534,345.8316550503995
-1001.0054401859962,472.8648417145509,364.26302559997555
-1030.1988956473415,473.51338122600487,410.9181014923547
-1007.0482784641035,457.89336827560896,415.24271795159416
-988.135601862002,465.38012471129286,403.7270627584344
-992.1522640249219,461.50622281818977,399.75526810888533
-988.5720404011565,461.40833006174387,391.95953766066907
-1018.5272238735962,469.5895132384658,415.0316366955077
-1077.116038606456,493.0083157857169,386.601948677683
-1123.7986468365855,489.3944415269231,374.1410165550928
-1144.8659837967095,446.6112280952212,330.7989986386789
-1231.6030448726121,400.43032024187676,282.56030346754505
-1444.1424951436018,374.8833699581407,267.6887622174749
-1743.1028944644709,393.0557325896204,306.3207109461437
-1884.2112240163563,409.9728245629242,343.39555301759526
-1796.9745019960947,385.7688405316801,309.46245659832874
-1502.0827703650075,355.98598909923373,266.88522584164826
-1267.3339009753588,283.58103939673595,164.6811092472965
-1146.783050277108,220.14755293601795,99.9819510230303
-1131.772827622073,181.30656238368866,96.41314822085016
-1166.647122105918,212.42218290649714,84.01197146834038
-1181.902076652068,255.0626360683822,79.71498931847267
-1173.4588264086105,359.45812280442357,79.48922414891936
-1222.1910642268258,437.42562444871595,102.04402114891427
-1268.843080970566,476.2982262036476,81.59096123548818
-1299.342792900736,484.3427674078305,88.95616749858515
-1300.158565871118,484.13678473280896,65.3968480571857
-1266.7628598960912,475.82405816461284,30.603621012272292
-1220.8960246363438,459.92362325564795,23.494975348360555
-1152.5750383668226,428.23288278871996,1.0776462910372044
-1097.2248423263807,388.55266579310984,-60.7533663381481
-1066.2866524246303,345.8612268205759,-48.372074051791394
-997.3059097653124,310.4719756491769,-51.14396863352929
-921.1626804260375,274.8879586810991,-69.50650833872933
-855.6540714719094,255.07283323051197,-64.53376025452117
-828.7610957870427,223.94905497799965,-60.101359791570005
-801.8130554266749,219.8712098423009,-59.68388797397685
-785.5547001269548,223.82668903244232,-35.906043348136215
-774.0492420959248,235.30971330678673,-39.697042313124264
-758.471037510261,239.09286045693486,-35.55179393574769
-761.8340615806623,231.52248729178672,-19.87814391254914
-797.0061131986969,239.39061759112442,-36.13007500012747
-823.6808696139866,262.84511020582977,-32.684148001611156
-827.9708157219846,258.9039070426701,-44.50898115054581
-816.3827606777035,243.37362911901621,-40.35832827724045
-805.502388685229,185.18556285785667,-47.848347804805925
-759.4234524531823,142.3064961021348,-43.08882238073145
-781.3728439375323,192.9833327384989,-20.040890620140416
-836.2764042766898,193.16076335955705,-48.33618004109457
-819.6346356808901,193.34941085895798,-12.765929241891982
-800.42114279596,166.1545991750496,-8.461798881371315
-852.070788699505,177.73653592205292,-56.370014225041174
-917.8812336526746,212.9238832832823,-73.17289798249148
-932.8588253888944,217.01498472974973,-61.63725635155737
-928.3771726328564,170.79940652516407,-33.94186597869813
-949.9156184833762,144.34184966323875,16.844896065424994
-956.8303141235796,121.42882635762469,44.29086385258983
-957.730723539639,128.9267996716514,16.779736199415705
-984.4595249142164,125.33433945333014,24.24079578653261
-987.5227524180023,160.3197830043899,39.775356518280965
-971.781393238262,148.69705760886748,51.82422131920686
-956.9955081500818,156.1440451122453,32.39750577414306
-1006.5720709926429,172.10872214262773,43.374852778471755
-1161.283414825654,207.91197809649577,17.38891466504872
-1379.2987411603353,229.32805800145823,57.22188514936293
-1471.0120173555702,280.43827402833796,67.44943482228896
-1383.1226769590025,349.0835300535861,33.212768886418914
-1227.7893062360747,363.640998710059,66.88746921731683
-1087.8128616805943,386.05640050373984,100.3056089490295
-985.7912742883657,432.08333120892456,144.84966833730175
-919.1385437432763,478.2071349543423,169.2402604355208
-878.4773597507814,490.02870501139535,228.6784987737913
-884.6568400014278,513.6432930715382,267.7519846226795
-952.192644786956,503.0515007673365,321.7214849107494
-1017.6186567278328,476.54397781097526,328.6800283481108
-1047.3505223496304,438.4371829319901,367.60871449475616
-1046.259426001744,380.782428250218,410.9905013434761
-1043.7407269556884,364.9696889355693,375.7603259013017
-1056.1200817812403,345.5451147945527,356.01760030183607
-1046.799875594622,317.8618590446279,297.38085890696624
-993.530920344868,297.9641365807896,282.54704715677633
-941.2735235783883,270.09019389903796,240.25329750730373
-885.9243472541593,211.1006306944778,182.41193475855673
-860.9933055630619,94.52239041874647,147.85783116558662
-791.7657915802033,36.02433042884166,156.94044347458106
-748.859192486731,12.655697919269068,177.28582135591668
-705.1633330444138,43.55177354142343,209.2325105923022
-696.6670575578818,136.37582660745517,212.97180994529225
-715.4175992821199,210.0299286708509,212.44257723075668
-722.3353540709621,264.3542902010371,223.92968036995308
-732.9414224021456,303.3023509557291,243.26248005180162
-762.8425609152973,319.2201210403145,266.3080664651028
-755.190610453111,350.04206329378536,258.46950793594146
-774.2134164062143,385.00915195301155,258.0667200318152
-758.5006092804373,446.75602779746396,254.16936466581353
-797.0356849688733,466.3631311406036,249.60103603167244
-808.1862817577869,447.2454915796934,265.1965757929569
-824.1183278693541,431.786593790948,253.23632433093874
-843.3583333758215,435.8042756700811,252.93448833189728
-883.4566340187528,471.4627319217063,311.0838053769636
-937.1324560374849,491.2574630480338,314.1368357186196
-975.4758250778809,480.0171312323781,321.45024039809726
-998.0513223169993,461.0228773332382,340.7993555393534
-1033.03370671942,418.73524598104353,340.4179816756997
-1044.862414789964,418.7556403053031,332.39077564713745
-1074.6585225331792,411.52993122014146,363.366695048768
-1069.9576307913508,415.57412572081194,386.97108594678105
-1085.100416554073,396.45240729504985,398.58259446396073
-1096.194928951273,365.7630281492661,418.14279086130335
-1116.8747737504655,357.83269516093674,378.613491865214
-1120.5661464414457,381.0740670871297,378.4799090413138
-1175.8551595091087,404.3266558916654,334.4026757353429
-1184.4105785359936,438.9317452952844,302.76088164663776
-1173.9686845150995,434.699923011426,271.5341120566147
-1203.1427653683982,391.87286178256596,216.2971045158133
-1368.4081720057309,377.8150540704522,229.56769131150804
-1623.7247174111446,438.4545181076107,296.1816726405042
-1766.7399162812992,474.20372910219095,274.2955035613589
-1690.4345520641607,423.2128198722296,263.83627436484426
-1505.0501445447733,359.1022418460943,180.48773026466736
-1352.4394161104967,334.3578082219719,143.61173285474655
-1311.202092457669,326.0195887484513,112.86015101997117
-1327.8948468641179,337.40268083392397,73.32575344281688
-1352.459810434756,364.2518087216328,25.771695737076378
-1375.1688904977746,364.53223068020174,37.20444800212101
-1364.2885185053,364.2722030458924,17.74510153824191
-1369.5604513263959,336.9132170516946,-17.56308219422535
-1386.0390653281192,321.31767729041013,-45.22961459825731
-1420.9949371090026,340.82688787710384,-57.59285790764431
-1397.4904783998616,394.8106641921554,-57.42297318656219
-1347.0451173438435,386.788556744658,-44.86639168319457
-1281.9770257937216,382.3109828534719,-55.650400493542655
-1196.4840184976522,347.07774826265853,-26.778665497392076
-1115.8652546996173,323.20619171684524,-29.415141766046514
-1058.8835127184107,303.24524684780226,-48.11734894178951
-994.3242595585649,283.19048808716536,-70.63043954867362
-941.6844692122182,270.8600796398363,-105.12152467968167
-891.4257162231752,274.3760611421842,-100.45632300530764
-853.5728306812215,273.90801140042726,-119.5107401610132
-817.9102955647445,297.0576088674522,-95.50702839399796
-801.5152982924852,301.0467386926219,-67.80256254684322
-817.2566574722256,331.97881029709436,-83.84116900266656
-821.1917423381075,320.4019721311559,-83.86105346881963
-828.2716320048131,293.5854751622624,-60.32896045030668
-790.3086171118579,250.6635803255954,-67.46473056548363
-768.1144937363932,234.80495378136266,-90.626462655443
-713.7289492334285,219.05033829085366,-74.06025503102488
-698.6962928217077,184.07815105056267,-77.64170231424596
-710.1201735556995,184.20255642854596,-73.8886367923807
-722.2537767739238,180.28582645449774,-89.75562500955985
-754.0628043215573,176.4160034262465,-117.69156643706059
-745.7827086721766,161.05193924530806,-97.89245053101723
-741.3020756323516,153.45607317483547,-78.17654346795288
-747.9730590976533,165.36125996135277,-50.84427403853508
-763.4411343323154,138.43361392524463,-47.060515058659185
-766.0118389052328,107.89005419791674,-3.825200246771324
-769.8653464740764,107.91962596809309,-3.8830181560471724
-808.318844865474,158.44248545629753,-12.478675184696101
-838.8481285658203,220.54524225907932,-17.070151376871816
-908.8108579382359,232.5156908832272,-37.78160737866652
-916.243569414632,174.71613649921227,-18.07487776151897
-903.6194826979653,151.72255561277296,17.513422014653326
-864.2941269444715,147.76095812535374,41.663565029852194
-866.8933835713522,171.27663371283774,72.94223817511588
-837.4929257187725,206.43440930389076,136.05767514900606
-879.744867003513,206.7953888432849,139.34829936828584
-1022.3266864831519,207.8966823533011,137.20893475345815
-1184.2780154283064,251.59967980910918,122.86152763685868
-1245.6343399631885,313.9410502057278,117.80781408534007
-1267.8029704333285,314.3591338530487,144.94654137753466
-1254.9545461498067,303.0056135377525,184.42383484676216
-1246.2461696909752,330.23305614047615,208.00987085294167
-1244.8797499655848,349.8840072807738,243.28593352470008
-1230.216230822962,423.9500746942127,317.82310982853477
-1222.6397393605362,443.1666267277817,310.0222807992536
-1259.9511555933984,443.77131844207764,344.7833867834582
-1285.617412674053,436.58435857300924,383.66924484915853
-1305.5120759892523,424.9901852314501,367.71170583226694
-1324.3972202536036,421.37325182401736,379.21512443087096
-1316.0865331178334,390.5686447461672,402.9908276526643
-1307.8574232791016,367.4679936573652,422.8151305491682
-1275.8077427052053,348.22798815089766,462.60649661199295
-1228.1156154242276,335.6538675286668,396.64513365930264
-1095.695268006914,333.99682868257764,327.9907001881377
-990.4952251788329,239.8015632249545,271.01507650420893
-876.0891843799872,165.2317560023046,253.35767056028308
